"counterbalance_group","counterbalance_remaining","consent_started","consent_stopped","key_resp_7_keys","key_resp_7_rt","key_resp_7_duration","age","gender","date","exp_name","psychopy_version","os","frame_rate","instructions_started","instructions_stopped","key_resp_2_keys","key_resp_2_rt","key_resp_2_duration","instructions_2_started","instructions_2_stopped","key_resp_4_keys","key_resp_4_rt","key_resp_4_duration","trial_started","key_resp_actual","trial_stopped","correct","approach","friendly","block","key_resp_keys","feedback_started","feedback_stopped","cue_started","cue_stopped","intertrial_interval_started","intertrial_interval_stopped","trials_this_rep_n","trials_this_trial_n","trials_this_n","trials_this_index","trials_ran","alien_stim","category","block_feedback_started","block_feedback_stopped","key_resp_3_keys","key_resp_3_rt","key_resp_3_duration"
"B",NA,0.607,252.385,"space",251.631,NA,50,"Female","2025-11-21_14h24.53.723","Category_Training_NoLabel","2024.2.4","MacIntel",37.03703704,NA,NA,NA,NA,NA,NA,NA,NA,NA,NA,NA,NA,NA,NA,NA,NA,NA,NA,NA,NA,NA,NA,NA,NA,NA,NA,NA,NA,NA,NA,NA,NA,NA,NA,NA,NA
NA,NA,NA,NA,NA,NA,NA,50,"Female","2025-11-21_14h24.53.723","Category_Training_NoLabel","2024.2.4","MacIntel",37.03703704,252.386,271.923,"space",19.497,NA,NA,NA,NA,NA,NA,NA,NA,NA,NA,NA,NA,NA,NA,NA,NA,NA,NA,NA,NA,NA,NA,NA,NA,NA,NA,NA,NA,NA,NA,NA,NA
NA,NA,NA,NA,NA,NA,NA,50,"Female","2025-11-21_14h24.53.723","Category_Training_NoLabel","2024.2.4","MacIntel",37.03703704,NA,NA,NA,NA,NA,271.924,286.93,"space",14.975,NA,NA,NA,NA,NA,NA,NA,NA,NA,NA,NA,NA,NA,NA,NA,NA,NA,NA,NA,NA,NA,NA,NA,NA,NA,NA,NA
NA,NA,NA,NA,NA,NA,NA,50,"Female","2025-11-21_14h24.53.723","Category_Training_NoLabel","2024.2.4","MacIntel",37.03703704,NA,NA,NA,NA,NA,NA,NA,NA,NA,NA,286.966,"[""left""]",291.55,0,FALSE,1,1,NA,291.552,292.748,292.748,294.55,294.551,295.551,0,0,0,13,1,"resources/F8Mbh0.png",2,NA,NA,NA,NA,NA
NA,NA,NA,NA,NA,NA,NA,50,"Female","2025-11-21_14h24.53.723","Category_Training_NoLabel","2024.2.4","MacIntel",37.03703704,NA,NA,NA,NA,NA,NA,NA,NA,NA,NA,295.552,"[""down""]",299.001,1,TRUE,1,1,NA,299.002,300.201,300.201,302.004,302.004,303.004,0,1,1,11,1,"resources/F8Fdh0.png",2,NA,NA,NA,NA,NA
NA,NA,NA,NA,NA,NA,NA,50,"Female","2025-11-21_14h24.53.723","Category_Training_NoLabel","2024.2.4","MacIntel",37.03703704,NA,NA,NA,NA,NA,NA,NA,NA,NA,NA,303.005,"[""right""]",306.871,1,FALSE,0,1,NA,306.873,308.073,308.074,309.873,309.873,310.874,0,2,2,5,1,"resources/F7Mbh0.png",1,NA,NA,NA,NA,NA
NA,NA,NA,NA,NA,NA,NA,50,"Female","2025-11-21_14h24.53.723","Category_Training_NoLabel","2024.2.4","MacIntel",37.03703704,NA,NA,NA,NA,NA,NA,NA,NA,NA,NA,310.876,"[""up""]",314.342,1,TRUE,1,1,NA,314.344,315.535,315.536,317.344,317.344,318.345,0,3,3,12,1,"resources/F8Mah0.png",2,NA,NA,NA,NA,NA
NA,NA,NA,NA,NA,NA,NA,50,"Female","2025-11-21_14h24.53.723","Category_Training_NoLabel","2024.2.4","MacIntel",37.03703704,NA,NA,NA,NA,NA,NA,NA,NA,NA,NA,318.346,"[""right""]",320.581,0,FALSE,1,1,NA,320.581,321.779,321.78,323.58,323.58,324.581,0,4,4,10,1,"resources/F8Fch0.png",2,NA,NA,NA,NA,NA
NA,NA,NA,NA,NA,NA,NA,50,"Female","2025-11-21_14h24.53.723","Category_Training_NoLabel","2024.2.4","MacIntel",37.03703704,NA,NA,NA,NA,NA,NA,NA,NA,NA,NA,324.582,"[""down""]",326.951,0,FALSE,1,1,NA,326.952,328.15,328.15,329.949,329.949,330.95,0,5,5,14,1,"resources/F8Mch0.png",2,NA,NA,NA,NA,NA
NA,NA,NA,NA,NA,NA,NA,50,"Female","2025-11-21_14h24.53.723","Category_Training_NoLabel","2024.2.4","MacIntel",37.03703704,NA,NA,NA,NA,NA,NA,NA,NA,NA,NA,330.952,"[""left""]",333.453,0,FALSE,1,1,NA,333.454,334.652,334.652,336.453,336.453,337.453,0,6,6,15,1,"resources/F8Mdh0.png",2,NA,NA,NA,NA,NA
NA,NA,NA,NA,NA,NA,NA,50,"Female","2025-11-21_14h24.53.723","Category_Training_NoLabel","2024.2.4","MacIntel",37.03703704,NA,NA,NA,NA,NA,NA,NA,NA,NA,NA,337.455,"[""up""]",339.603,0,FALSE,1,1,NA,339.604,340.804,340.804,342.606,342.606,343.605,0,7,7,8,1,"resources/F8Fah0.png",2,NA,NA,NA,NA,NA
NA,NA,NA,NA,NA,NA,NA,50,"Female","2025-11-21_14h24.53.723","Category_Training_NoLabel","2024.2.4","MacIntel",37.03703704,NA,NA,NA,NA,NA,NA,NA,NA,NA,NA,343.607,"[""up""]",345.776,0,TRUE,0,1,NA,345.776,346.975,346.976,348.775,348.775,349.776,0,8,8,0,1,"resources/F7Fah0.png",1,NA,NA,NA,NA,NA
NA,NA,NA,NA,NA,NA,NA,50,"Female","2025-11-21_14h24.53.723","Category_Training_NoLabel","2024.2.4","MacIntel",37.03703704,NA,NA,NA,NA,NA,NA,NA,NA,NA,NA,349.777,"[""right""]",352.312,1,FALSE,0,1,NA,352.312,353.511,353.512,355.311,355.311,356.312,0,9,9,6,1,"resources/F7Mch0.png",1,NA,NA,NA,NA,NA
NA,NA,NA,NA,NA,NA,NA,50,"Female","2025-11-21_14h24.53.723","Category_Training_NoLabel","2024.2.4","MacIntel",37.03703704,NA,NA,NA,NA,NA,NA,NA,NA,NA,NA,356.314,"[""up""]",358.796,1,FALSE,0,1,NA,358.797,359.998,359.998,361.798,361.798,362.799,0,10,10,7,1,"resources/F7Mdh0.png",1,NA,NA,NA,NA,NA
NA,NA,NA,NA,NA,NA,NA,50,"Female","2025-11-21_14h24.53.723","Category_Training_NoLabel","2024.2.4","MacIntel",37.03703704,NA,NA,NA,NA,NA,NA,NA,NA,NA,NA,362.8,"[""down""]",365.669,1,FALSE,0,1,NA,365.669,366.867,366.869,368.668,368.668,369.669,0,11,11,1,1,"resources/F7Fbh0.png",1,NA,NA,NA,NA,NA
NA,NA,NA,NA,NA,NA,NA,50,"Female","2025-11-21_14h24.53.723","Category_Training_NoLabel","2024.2.4","MacIntel",37.03703704,NA,NA,NA,NA,NA,NA,NA,NA,NA,NA,369.671,"[""down""]",373.336,1,TRUE,1,1,NA,373.337,374.537,374.538,376.338,376.338,377.338,0,12,12,9,1,"resources/F8Fbh0.png",2,NA,NA,NA,NA,NA
NA,NA,NA,NA,NA,NA,NA,50,"Female","2025-11-21_14h24.53.723","Category_Training_NoLabel","2024.2.4","MacIntel",37.03703704,NA,NA,NA,NA,NA,NA,NA,NA,NA,NA,377.34,"[""left""]",379.889,1,FALSE,0,1,NA,379.89,381.091,381.091,382.89,382.89,383.891,0,13,13,3,1,"resources/F7Fdh0.png",1,NA,NA,NA,NA,NA
NA,NA,NA,NA,NA,NA,NA,50,"Female","2025-11-21_14h24.53.723","Category_Training_NoLabel","2024.2.4","MacIntel",37.03703704,NA,NA,NA,NA,NA,NA,NA,NA,NA,NA,383.893,"[""right""]",385.942,1,FALSE,0,1,NA,385.943,387.142,387.142,388.944,388.944,389.933,0,14,14,2,1,"resources/F7Fch0.png",1,NA,NA,NA,NA,NA
NA,NA,NA,NA,NA,NA,NA,50,"Female","2025-11-21_14h24.53.723","Category_Training_NoLabel","2024.2.4","MacIntel",37.03703704,NA,NA,NA,NA,NA,NA,NA,NA,NA,NA,389.935,"[""right""]",392.247,1,FALSE,0,1,NA,392.248,393.447,393.448,395.246,395.246,396.248,0,15,15,4,1,"resources/F7Mah0.png",1,NA,NA,NA,NA,NA
NA,NA,NA,NA,NA,NA,NA,50,"Female","2025-11-21_14h24.53.723","Category_Training_NoLabel","2024.2.4","MacIntel",37.03703704,NA,NA,NA,NA,NA,NA,NA,NA,NA,NA,402.877,"[""up""]",405.368,0,TRUE,0,2,NA,405.371,406.569,406.571,408.371,408.371,409.37,0,0,0,6,1,"resources/F7Mch0.png",1,396.253,402.869,"space",6.573,NA
NA,NA,NA,NA,NA,NA,NA,50,"Female","2025-11-21_14h24.53.723","Category_Training_NoLabel","2024.2.4","MacIntel",37.03703704,NA,NA,NA,NA,NA,NA,NA,NA,NA,NA,409.371,"[""down""]",411.439,0,TRUE,0,2,NA,411.44,412.639,412.639,414.44,414.44,415.44,0,1,1,4,1,"resources/F7Mah0.png",1,NA,NA,NA,NA,NA
NA,NA,NA,NA,NA,NA,NA,50,"Female","2025-11-21_14h24.53.723","Category_Training_NoLabel","2024.2.4","MacIntel",37.03703704,NA,NA,NA,NA,NA,NA,NA,NA,NA,NA,415.442,"[""left""]",417.706,0,TRUE,0,2,NA,417.707,418.907,418.907,420.71,420.71,421.693,0,2,2,2,1,"resources/F7Fch0.png",1,NA,NA,NA,NA,NA
NA,NA,NA,NA,NA,NA,NA,50,"Female","2025-11-21_14h24.53.723","Category_Training_NoLabel","2024.2.4","MacIntel",37.03703704,NA,NA,NA,NA,NA,NA,NA,NA,NA,NA,421.695,"[""right""]",423.66,1,TRUE,1,2,NA,423.662,424.861,424.862,426.662,426.662,427.663,0,3,3,11,1,"resources/F8Fdh0.png",2,NA,NA,NA,NA,NA
NA,NA,NA,NA,NA,NA,NA,50,"Female","2025-11-21_14h24.53.723","Category_Training_NoLabel","2024.2.4","MacIntel",37.03703704,NA,NA,NA,NA,NA,NA,NA,NA,NA,NA,427.665,"[""down""]",430.014,1,TRUE,1,2,NA,430.015,431.214,431.215,433.015,433.015,434.015,0,4,4,12,1,"resources/F8Mah0.png",2,NA,NA,NA,NA,NA
NA,NA,NA,NA,NA,NA,NA,50,"Female","2025-11-21_14h24.53.723","Category_Training_NoLabel","2024.2.4","MacIntel",37.03703704,NA,NA,NA,NA,NA,NA,NA,NA,NA,NA,434.016,"[""up""]",436.334,0,TRUE,0,2,NA,436.335,437.534,437.535,439.335,439.335,440.334,0,5,5,1,1,"resources/F7Fbh0.png",1,NA,NA,NA,NA,NA
NA,NA,NA,NA,NA,NA,NA,50,"Female","2025-11-21_14h24.53.723","Category_Training_NoLabel","2024.2.4","MacIntel",37.03703704,NA,NA,NA,NA,NA,NA,NA,NA,NA,NA,440.336,"[""up""]",445.07,1,TRUE,1,2,NA,445.071,446.272,446.272,448.072,448.073,449.073,0,6,6,13,1,"resources/F8Mbh0.png",2,NA,NA,NA,NA,NA
NA,NA,NA,NA,NA,NA,NA,50,"Female","2025-11-21_14h24.53.723","Category_Training_NoLabel","2024.2.4","MacIntel",37.03703704,NA,NA,NA,NA,NA,NA,NA,NA,NA,NA,449.074,"[""left""]",451.491,1,FALSE,0,2,NA,451.492,452.691,452.692,454.492,454.492,455.493,0,7,7,5,1,"resources/F7Mbh0.png",1,NA,NA,NA,NA,NA
NA,NA,NA,NA,NA,NA,NA,50,"Female","2025-11-21_14h24.53.723","Category_Training_NoLabel","2024.2.4","MacIntel",37.03703704,NA,NA,NA,NA,NA,NA,NA,NA,NA,NA,455.494,"[""left""]",457.66,0,FALSE,1,2,NA,457.662,458.86,458.861,460.662,460.662,461.661,0,8,8,8,1,"resources/F8Fah0.png",2,NA,NA,NA,NA,NA
NA,NA,NA,NA,NA,NA,NA,50,"Female","2025-11-21_14h24.53.723","Category_Training_NoLabel","2024.2.4","MacIntel",37.03703704,NA,NA,NA,NA,NA,NA,NA,NA,NA,NA,461.662,"[""down""]",464.297,0,FALSE,1,2,NA,464.298,465.498,465.498,467.298,467.298,468.299,0,9,9,15,1,"resources/F8Mdh0.png",2,NA,NA,NA,NA,NA
NA,NA,NA,NA,NA,NA,NA,50,"Female","2025-11-21_14h24.53.723","Category_Training_NoLabel","2024.2.4","MacIntel",37.03703704,NA,NA,NA,NA,NA,NA,NA,NA,NA,NA,468.3,"[""left""]",470.866,1,FALSE,0,2,NA,470.868,472.067,472.067,473.867,473.867,474.867,0,10,10,0,1,"resources/F7Fah0.png",1,NA,NA,NA,NA,NA
NA,NA,NA,NA,NA,NA,NA,50,"Female","2025-11-21_14h24.53.723","Category_Training_NoLabel","2024.2.4","MacIntel",37.03703704,NA,NA,NA,NA,NA,NA,NA,NA,NA,NA,474.868,"[""up""]",477.152,0,FALSE,1,2,NA,477.154,478.354,478.354,480.153,480.153,481.155,0,11,11,10,1,"resources/F8Fch0.png",2,NA,NA,NA,NA,NA
NA,NA,NA,NA,NA,NA,NA,50,"Female","2025-11-21_14h24.53.723","Category_Training_NoLabel","2024.2.4","MacIntel",37.03703704,NA,NA,NA,NA,NA,NA,NA,NA,NA,NA,481.157,"[""left""]",483.457,1,FALSE,0,2,NA,483.458,484.657,484.658,486.457,486.457,487.458,0,12,12,3,1,"resources/F7Fdh0.png",1,NA,NA,NA,NA,NA
NA,NA,NA,NA,NA,NA,NA,50,"Female","2025-11-21_14h24.53.723","Category_Training_NoLabel","2024.2.4","MacIntel",37.03703704,NA,NA,NA,NA,NA,NA,NA,NA,NA,NA,487.459,"[""up""]",489.659,1,FALSE,0,2,NA,489.66,490.859,490.86,492.66,492.66,493.661,0,13,13,7,1,"resources/F7Mdh0.png",1,NA,NA,NA,NA,NA
NA,NA,NA,NA,NA,NA,NA,50,"Female","2025-11-21_14h24.53.723","Category_Training_NoLabel","2024.2.4","MacIntel",37.03703704,NA,NA,NA,NA,NA,NA,NA,NA,NA,NA,493.662,"[""right""]",501.914,0,FALSE,1,2,NA,501.916,503.115,503.115,504.916,504.916,505.916,0,14,14,14,1,"resources/F8Mch0.png",2,NA,NA,NA,NA,NA
NA,NA,NA,NA,NA,NA,NA,50,"Female","2025-11-21_14h24.53.723","Category_Training_NoLabel","2024.2.4","MacIntel",37.03703704,NA,NA,NA,NA,NA,NA,NA,NA,NA,NA,505.918,"[""up""]",507.902,0,FALSE,1,2,NA,507.902,509.101,509.102,510.903,510.903,511.904,0,15,15,9,1,"resources/F8Fbh0.png",2,NA,NA,NA,NA,NA
NA,NA,NA,NA,NA,NA,NA,50,"Female","2025-11-21_14h24.53.723","Category_Training_NoLabel","2024.2.4","MacIntel",37.03703704,NA,NA,NA,NA,NA,NA,NA,NA,NA,NA,517.263,"[""right""]",519.305,1,FALSE,0,3,NA,519.306,520.506,520.506,522.307,522.307,523.307,0,0,0,7,1,"resources/F7Mdh0.png",1,511.906,517.254,"space",5.312,NA
NA,NA,NA,NA,NA,NA,NA,50,"Female","2025-11-21_14h24.53.723","Category_Training_NoLabel","2024.2.4","MacIntel",37.03703704,NA,NA,NA,NA,NA,NA,NA,NA,NA,NA,523.308,"[""down""]",525.392,1,FALSE,0,3,NA,525.394,526.594,526.595,528.393,528.394,529.395,0,1,1,5,1,"resources/F7Mbh0.png",1,NA,NA,NA,NA,NA
NA,NA,NA,NA,NA,NA,NA,50,"Female","2025-11-21_14h24.53.723","Category_Training_NoLabel","2024.2.4","MacIntel",37.03703704,NA,NA,NA,NA,NA,NA,NA,NA,NA,NA,529.396,"[""left""]",531.678,1,FALSE,0,3,NA,531.678,532.879,532.879,534.679,534.679,535.68,0,2,2,3,1,"resources/F7Fdh0.png",1,NA,NA,NA,NA,NA
NA,NA,NA,NA,NA,NA,NA,50,"Female","2025-11-21_14h24.53.723","Category_Training_NoLabel","2024.2.4","MacIntel",37.03703704,NA,NA,NA,NA,NA,NA,NA,NA,NA,NA,535.681,"[""up""]",538.58,1,FALSE,0,3,NA,538.581,539.781,539.782,541.583,541.583,542.583,0,3,3,1,1,"resources/F7Fbh0.png",1,NA,NA,NA,NA,NA
NA,NA,NA,NA,NA,NA,NA,50,"Female","2025-11-21_14h24.53.723","Category_Training_NoLabel","2024.2.4","MacIntel",37.03703704,NA,NA,NA,NA,NA,NA,NA,NA,NA,NA,542.583,"[""down""]",544.601,1,FALSE,0,3,NA,544.604,545.802,545.803,547.603,547.603,548.603,0,4,4,2,1,"resources/F7Fch0.png",1,NA,NA,NA,NA,NA
NA,NA,NA,NA,NA,NA,NA,50,"Female","2025-11-21_14h24.53.723","Category_Training_NoLabel","2024.2.4","MacIntel",37.03703704,NA,NA,NA,NA,NA,NA,NA,NA,NA,NA,548.605,"[""right""]",550.739,0,FALSE,1,3,NA,550.74,551.938,551.939,553.74,553.74,554.739,0,5,5,9,1,"resources/F8Fbh0.png",2,NA,NA,NA,NA,NA
NA,NA,NA,NA,NA,NA,NA,50,"Female","2025-11-21_14h24.53.723","Category_Training_NoLabel","2024.2.4","MacIntel",37.03703704,NA,NA,NA,NA,NA,NA,NA,NA,NA,NA,554.741,"[""left""]",556.523,0,FALSE,1,3,NA,556.523,557.724,557.724,559.524,559.524,560.526,0,6,6,13,1,"resources/F8Mbh0.png",2,NA,NA,NA,NA,NA
NA,NA,NA,NA,NA,NA,NA,50,"Female","2025-11-21_14h24.53.723","Category_Training_NoLabel","2024.2.4","MacIntel",37.03703704,NA,NA,NA,NA,NA,NA,NA,NA,NA,NA,560.528,"[""left""]",562.609,0,FALSE,1,3,NA,562.611,563.812,563.813,565.612,565.612,566.611,0,7,7,10,1,"resources/F8Fch0.png",2,NA,NA,NA,NA,NA
NA,NA,NA,NA,NA,NA,NA,50,"Female","2025-11-21_14h24.53.723","Category_Training_NoLabel","2024.2.4","MacIntel",37.03703704,NA,NA,NA,NA,NA,NA,NA,NA,NA,NA,566.612,"[""down""]",568.528,1,FALSE,0,3,NA,568.528,569.729,569.73,571.53,571.53,572.53,0,8,8,6,1,"resources/F7Mch0.png",1,NA,NA,NA,NA,NA
NA,NA,NA,NA,NA,NA,NA,50,"Female","2025-11-21_14h24.53.723","Category_Training_NoLabel","2024.2.4","MacIntel",37.03703704,NA,NA,NA,NA,NA,NA,NA,NA,NA,NA,572.531,"[""up""]",574.532,0,FALSE,1,3,NA,574.532,575.732,575.732,577.533,577.533,578.533,0,9,9,8,1,"resources/F8Fah0.png",2,NA,NA,NA,NA,NA
NA,NA,NA,NA,NA,NA,NA,50,"Female","2025-11-21_14h24.53.723","Category_Training_NoLabel","2024.2.4","MacIntel",37.03703704,NA,NA,NA,NA,NA,NA,NA,NA,NA,NA,578.533,"[""right""]",580.601,0,FALSE,1,3,NA,580.601,581.801,581.801,583.603,583.603,584.603,0,10,10,11,1,"resources/F8Fdh0.png",2,NA,NA,NA,NA,NA
NA,NA,NA,NA,NA,NA,NA,50,"Female","2025-11-21_14h24.53.723","Category_Training_NoLabel","2024.2.4","MacIntel",37.03703704,NA,NA,NA,NA,NA,NA,NA,NA,NA,NA,584.604,"[""left""]",586.757,0,FALSE,1,3,NA,586.757,587.955,587.956,589.757,589.757,590.756,0,11,11,14,1,"resources/F8Mch0.png",2,NA,NA,NA,NA,NA
NA,NA,NA,NA,NA,NA,NA,50,"Female","2025-11-21_14h24.53.723","Category_Training_NoLabel","2024.2.4","MacIntel",37.03703704,NA,NA,NA,NA,NA,NA,NA,NA,NA,NA,590.758,"[""left""]",593.04,0,FALSE,1,3,NA,593.041,594.241,594.241,596.042,596.043,597.042,0,12,12,12,1,"resources/F8Mah0.png",2,NA,NA,NA,NA,NA
NA,NA,NA,NA,NA,NA,NA,50,"Female","2025-11-21_14h24.53.723","Category_Training_NoLabel","2024.2.4","MacIntel",37.03703704,NA,NA,NA,NA,NA,NA,NA,NA,NA,NA,597.044,"[""left""]",598.961,1,FALSE,0,3,NA,598.962,600.16,600.161,601.962,601.962,602.963,0,13,13,4,1,"resources/F7Mah0.png",1,NA,NA,NA,NA,NA
NA,NA,NA,NA,NA,NA,NA,50,"Female","2025-11-21_14h24.53.723","Category_Training_NoLabel","2024.2.4","MacIntel",37.03703704,NA,NA,NA,NA,NA,NA,NA,NA,NA,NA,602.964,"[""right""]",604.88,0,FALSE,1,3,NA,604.882,606.081,606.082,607.867,607.868,608.882,0,14,14,15,1,"resources/F8Mdh0.png",2,NA,NA,NA,NA,NA
NA,NA,NA,NA,NA,NA,NA,50,"Female","2025-11-21_14h24.53.723","Category_Training_NoLabel","2024.2.4","MacIntel",37.03703704,NA,NA,NA,NA,NA,NA,NA,NA,NA,NA,608.884,"[""down""]",611.218,1,FALSE,0,3,NA,611.219,612.418,612.419,614.218,614.218,615.218,0,15,15,0,1,"resources/F7Fah0.png",1,NA,NA,NA,NA,NA
NA,NA,NA,NA,NA,NA,NA,50,"Female","2025-11-21_14h24.53.723","Category_Training_NoLabel","2024.2.4","MacIntel",37.03703704,NA,NA,NA,NA,NA,NA,NA,NA,NA,NA,971.229,"[""down""]",973.49,1,FALSE,0,4,NA,973.491,974.69,974.691,976.49,976.491,977.491,0,0,0,4,1,"resources/F7Mah0.png",1,615.221,971.221,"space",355.971,NA
NA,NA,NA,NA,NA,NA,NA,50,"Female","2025-11-21_14h24.53.723","Category_Training_NoLabel","2024.2.4","MacIntel",37.03703704,NA,NA,NA,NA,NA,NA,NA,NA,NA,NA,977.492,"[""up""]",979.574,0,FALSE,1,4,NA,979.574,980.774,980.774,982.574,982.574,983.575,0,1,1,10,1,"resources/F8Fch0.png",2,NA,NA,NA,NA,NA
NA,NA,NA,NA,NA,NA,NA,50,"Female","2025-11-21_14h24.53.723","Category_Training_NoLabel","2024.2.4","MacIntel",37.03703704,NA,NA,NA,NA,NA,NA,NA,NA,NA,NA,983.576,"[""right""]",985.409,1,FALSE,0,4,NA,985.411,986.612,986.613,988.412,988.412,989.413,0,2,2,6,1,"resources/F7Mch0.png",1,NA,NA,NA,NA,NA
NA,NA,NA,NA,NA,NA,NA,50,"Female","2025-11-21_14h24.53.723","Category_Training_NoLabel","2024.2.4","MacIntel",37.03703704,NA,NA,NA,NA,NA,NA,NA,NA,NA,NA,989.415,"[""right""]",991.382,1,FALSE,0,4,NA,991.382,992.58,992.581,994.382,994.382,995.382,0,3,3,2,1,"resources/F7Fch0.png",1,NA,NA,NA,NA,NA
NA,NA,NA,NA,NA,NA,NA,50,"Female","2025-11-21_14h24.53.723","Category_Training_NoLabel","2024.2.4","MacIntel",37.03703704,NA,NA,NA,NA,NA,NA,NA,NA,NA,NA,995.384,"[""down""]",997.718,1,FALSE,0,4,NA,997.719,998.917,998.917,1000.719,1000.719,1001.717,0,4,4,3,1,"resources/F7Fdh0.png",1,NA,NA,NA,NA,NA
NA,NA,NA,NA,NA,NA,NA,50,"Female","2025-11-21_14h24.53.723","Category_Training_NoLabel","2024.2.4","MacIntel",37.03703704,NA,NA,NA,NA,NA,NA,NA,NA,NA,NA,1001.72,"[""right""]",1003.638,1,FALSE,0,4,NA,1003.639,1004.837,1004.838,1006.637,1006.637,1007.638,0,5,5,1,1,"resources/F7Fbh0.png",1,NA,NA,NA,NA,NA
NA,NA,NA,NA,NA,NA,NA,50,"Female","2025-11-21_14h24.53.723","Category_Training_NoLabel","2024.2.4","MacIntel",37.03703704,NA,NA,NA,NA,NA,NA,NA,NA,NA,NA,1007.64,"[""right""]",1009.788,0,TRUE,0,4,NA,1009.789,1010.989,1010.989,1012.789,1012.789,1013.789,0,6,6,5,1,"resources/F7Mbh0.png",1,NA,NA,NA,NA,NA
NA,NA,NA,NA,NA,NA,NA,50,"Female","2025-11-21_14h24.53.723","Category_Training_NoLabel","2024.2.4","MacIntel",37.03703704,NA,NA,NA,NA,NA,NA,NA,NA,NA,NA,1013.79,"[""right""]",1015.924,0,FALSE,1,4,NA,1015.925,1017.124,1017.124,1018.925,1018.925,1019.925,0,7,7,8,1,"resources/F8Fah0.png",2,NA,NA,NA,NA,NA
NA,NA,NA,NA,NA,NA,NA,50,"Female","2025-11-21_14h24.53.723","Category_Training_NoLabel","2024.2.4","MacIntel",37.03703704,NA,NA,NA,NA,NA,NA,NA,NA,NA,NA,1019.926,"[""down""]",1022.246,0,FALSE,1,4,NA,1022.247,1023.446,1023.446,1025.246,1025.247,1026.246,0,8,8,14,1,"resources/F8Mch0.png",2,NA,NA,NA,NA,NA
NA,NA,NA,NA,NA,NA,NA,50,"Female","2025-11-21_14h24.53.723","Category_Training_NoLabel","2024.2.4","MacIntel",37.03703704,NA,NA,NA,NA,NA,NA,NA,NA,NA,NA,1026.248,"[""right""]",1028.863,0,FALSE,1,4,NA,1028.864,1030.063,1030.063,1031.864,1031.864,1032.866,0,9,9,15,1,"resources/F8Mdh0.png",2,NA,NA,NA,NA,NA
NA,NA,NA,NA,NA,NA,NA,50,"Female","2025-11-21_14h24.53.723","Category_Training_NoLabel","2024.2.4","MacIntel",37.03703704,NA,NA,NA,NA,NA,NA,NA,NA,NA,NA,1032.866,"[""left""]",1035.151,0,FALSE,1,4,NA,1035.154,1036.351,1036.352,1038.152,1038.153,1039.152,0,10,10,11,1,"resources/F8Fdh0.png",2,NA,NA,NA,NA,NA
NA,NA,NA,NA,NA,NA,NA,50,"Female","2025-11-21_14h24.53.723","Category_Training_NoLabel","2024.2.4","MacIntel",37.03703704,NA,NA,NA,NA,NA,NA,NA,NA,NA,NA,1039.153,"[""down""]",1041.32,0,FALSE,1,4,NA,1041.323,1042.521,1042.521,1044.321,1044.321,1045.321,0,11,11,13,1,"resources/F8Mbh0.png",2,NA,NA,NA,NA,NA
NA,NA,NA,NA,NA,NA,NA,50,"Female","2025-11-21_14h24.53.723","Category_Training_NoLabel","2024.2.4","MacIntel",37.03703704,NA,NA,NA,NA,NA,NA,NA,NA,NA,NA,1045.324,"[""left""]",1047.706,1,FALSE,0,4,NA,1047.707,1048.907,1048.907,1050.706,1050.706,1051.707,0,12,12,7,1,"resources/F7Mdh0.png",1,NA,NA,NA,NA,NA
NA,NA,NA,NA,NA,NA,NA,50,"Female","2025-11-21_14h24.53.723","Category_Training_NoLabel","2024.2.4","MacIntel",37.03703704,NA,NA,NA,NA,NA,NA,NA,NA,NA,NA,1051.708,"[""down""]",1053.508,0,FALSE,1,4,NA,1053.509,1054.709,1054.709,1056.51,1056.51,1057.511,0,13,13,9,1,"resources/F8Fbh0.png",2,NA,NA,NA,NA,NA
NA,NA,NA,NA,NA,NA,NA,50,"Female","2025-11-21_14h24.53.723","Category_Training_NoLabel","2024.2.4","MacIntel",37.03703704,NA,NA,NA,NA,NA,NA,NA,NA,NA,NA,1057.511,"[""up""]",1059.897,0,TRUE,0,4,NA,1059.898,1061.097,1061.097,1062.897,1062.898,1063.897,0,14,14,0,1,"resources/F7Fah0.png",1,NA,NA,NA,NA,NA
NA,NA,NA,NA,NA,NA,NA,50,"Female","2025-11-21_14h24.53.723","Category_Training_NoLabel","2024.2.4","MacIntel",37.03703704,NA,NA,NA,NA,NA,NA,NA,NA,NA,NA,1063.9,"[""down""]",1065.701,0,FALSE,1,4,NA,1065.701,1066.899,1066.899,1068.699,1068.7,1069.699,0,15,15,12,1,"resources/F8Mah0.png",2,NA,NA,NA,NA,NA
NA,NA,NA,NA,NA,NA,NA,50,"Female","2025-11-21_14h24.53.723","Category_Training_NoLabel","2024.2.4","MacIntel",37.03703704,NA,NA,NA,NA,NA,NA,NA,NA,NA,NA,1185.565,"[""left""]",1188.206,0,FALSE,1,5,NA,1188.207,1189.408,1189.409,1191.209,1191.209,1192.208,0,0,0,11,1,"resources/F8Fdh0.png",2,1069.703,1185.556,"space",115.816,NA
NA,NA,NA,NA,NA,NA,NA,50,"Female","2025-11-21_14h24.53.723","Category_Training_NoLabel","2024.2.4","MacIntel",37.03703704,NA,NA,NA,NA,NA,NA,NA,NA,NA,NA,1192.211,"[""left""]",1220.939,0,TRUE,0,5,NA,1220.941,1222.139,1222.141,1223.941,1223.941,1224.94,0,1,1,3,1,"resources/F7Fdh0.png",1,NA,NA,NA,NA,NA
NA,NA,NA,NA,NA,NA,NA,50,"Female","2025-11-21_14h24.53.723","Category_Training_NoLabel","2024.2.4","MacIntel",37.03703704,NA,NA,NA,NA,NA,NA,NA,NA,NA,NA,1224.942,"[""up""]",1227.375,0,FALSE,1,5,NA,1227.377,1228.576,1228.577,1230.376,1230.376,1231.377,0,2,2,14,1,"resources/F8Mch0.png",2,NA,NA,NA,NA,NA
NA,NA,NA,NA,NA,NA,NA,50,"Female","2025-11-21_14h24.53.723","Category_Training_NoLabel","2024.2.4","MacIntel",37.03703704,NA,NA,NA,NA,NA,NA,NA,NA,NA,NA,1231.379,"[""down""]",1234.294,1,FALSE,0,5,NA,1234.295,1235.495,1235.495,1237.296,1237.296,1238.295,0,3,3,2,1,"resources/F7Fch0.png",1,NA,NA,NA,NA,NA
NA,NA,NA,NA,NA,NA,NA,50,"Female","2025-11-21_14h24.53.723","Category_Training_NoLabel","2024.2.4","MacIntel",37.03703704,NA,NA,NA,NA,NA,NA,NA,NA,NA,NA,1238.296,"[""up""]",1241.333,1,FALSE,0,5,NA,1241.334,1242.533,1242.534,1244.333,1244.333,1245.334,0,4,4,5,1,"resources/F7Mbh0.png",1,NA,NA,NA,NA,NA
NA,NA,NA,NA,NA,NA,NA,50,"Female","2025-11-21_14h24.53.723","Category_Training_NoLabel","2024.2.4","MacIntel",37.03703704,NA,NA,NA,NA,NA,NA,NA,NA,NA,NA,1245.335,"[""left""]",1247.917,0,TRUE,0,5,NA,1247.917,1249.118,1249.118,1250.919,1250.919,1251.919,0,5,5,6,1,"resources/F7Mch0.png",1,NA,NA,NA,NA,NA
NA,NA,NA,NA,NA,NA,NA,50,"Female","2025-11-21_14h24.53.723","Category_Training_NoLabel","2024.2.4","MacIntel",37.03703704,NA,NA,NA,NA,NA,NA,NA,NA,NA,NA,1251.919,"[""left""]",1254.421,0,FALSE,1,5,NA,1254.421,1255.62,1255.621,1257.422,1257.422,1258.423,0,6,6,15,1,"resources/F8Mdh0.png",2,NA,NA,NA,NA,NA
NA,NA,NA,NA,NA,NA,NA,50,"Female","2025-11-21_14h24.53.723","Category_Training_NoLabel","2024.2.4","MacIntel",37.03703704,NA,NA,NA,NA,NA,NA,NA,NA,NA,NA,1258.424,"[""up""]",1260.709,0,FALSE,1,5,NA,1260.711,1261.907,1261.908,1263.711,1263.711,1264.71,0,7,7,9,1,"resources/F8Fbh0.png",2,NA,NA,NA,NA,NA
NA,NA,NA,NA,NA,NA,NA,50,"Female","2025-11-21_14h24.53.723","Category_Training_NoLabel","2024.2.4","MacIntel",37.03703704,NA,NA,NA,NA,NA,NA,NA,NA,NA,NA,1264.712,"[""right""]",1267.127,0,TRUE,0,5,NA,1267.127,1268.326,1268.327,1270.128,1270.128,1271.128,0,8,8,4,1,"resources/F7Mah0.png",1,NA,NA,NA,NA,NA
NA,NA,NA,NA,NA,NA,NA,50,"Female","2025-11-21_14h24.53.723","Category_Training_NoLabel","2024.2.4","MacIntel",37.03703704,NA,NA,NA,NA,NA,NA,NA,NA,NA,NA,1271.128,"[""up""]",1273.395,0,FALSE,1,5,NA,1273.396,1274.596,1274.596,1276.398,1276.398,1277.398,0,9,9,13,1,"resources/F8Mbh0.png",2,NA,NA,NA,NA,NA
NA,NA,NA,NA,NA,NA,NA,50,"Female","2025-11-21_14h24.53.723","Category_Training_NoLabel","2024.2.4","MacIntel",37.03703704,NA,NA,NA,NA,NA,NA,NA,NA,NA,NA,1277.399,"[""up""]",1279.533,0,FALSE,1,5,NA,1279.533,1280.733,1280.733,1282.534,1282.534,1283.534,0,10,10,8,1,"resources/F8Fah0.png",2,NA,NA,NA,NA,NA
NA,NA,NA,NA,NA,NA,NA,50,"Female","2025-11-21_14h24.53.723","Category_Training_NoLabel","2024.2.4","MacIntel",37.03703704,NA,NA,NA,NA,NA,NA,NA,NA,NA,NA,1283.535,"[""left""]",1285.787,0,TRUE,0,5,NA,1285.788,1286.987,1286.988,1288.787,1288.788,1289.788,0,11,11,7,1,"resources/F7Mdh0.png",1,NA,NA,NA,NA,NA
NA,NA,NA,NA,NA,NA,NA,50,"Female","2025-11-21_14h24.53.723","Category_Training_NoLabel","2024.2.4","MacIntel",37.03703704,NA,NA,NA,NA,NA,NA,NA,NA,NA,NA,1289.79,"[""right""]",1292.089,0,FALSE,1,5,NA,1292.09,1293.289,1293.29,1295.091,1295.091,1296.091,0,12,12,12,1,"resources/F8Mah0.png",2,NA,NA,NA,NA,NA
NA,NA,NA,NA,NA,NA,NA,50,"Female","2025-11-21_14h24.53.723","Category_Training_NoLabel","2024.2.4","MacIntel",37.03703704,NA,NA,NA,NA,NA,NA,NA,NA,NA,NA,1296.093,"[""down""]",1298.658,1,FALSE,0,5,NA,1298.66,1299.86,1299.861,1301.66,1301.66,1302.661,0,13,13,1,1,"resources/F7Fbh0.png",1,NA,NA,NA,NA,NA
NA,NA,NA,NA,NA,NA,NA,50,"Female","2025-11-21_14h24.53.723","Category_Training_NoLabel","2024.2.4","MacIntel",37.03703704,NA,NA,NA,NA,NA,NA,NA,NA,NA,NA,1302.663,"[""down""]",1304.678,0,FALSE,1,5,NA,1304.678,1305.878,1305.878,1307.679,1307.679,1308.68,0,14,14,10,1,"resources/F8Fch0.png",2,NA,NA,NA,NA,NA
NA,NA,NA,NA,NA,NA,NA,50,"Female","2025-11-21_14h24.53.723","Category_Training_NoLabel","2024.2.4","MacIntel",37.03703704,NA,NA,NA,NA,NA,NA,NA,NA,NA,NA,1308.68,"[""left""]",1312.748,0,TRUE,0,5,NA,1312.749,1313.948,1313.948,1315.75,1315.75,1316.75,0,15,15,0,1,"resources/F7Fah0.png",1,NA,NA,NA,NA,NA
NA,NA,NA,NA,NA,NA,NA,50,"Female","2025-11-21_14h24.53.723","Category_Training_NoLabel","2024.2.4","MacIntel",37.03703704,NA,NA,NA,NA,NA,NA,NA,NA,NA,NA,1318.311,"[""right""]",1321.219,1,FALSE,0,6,NA,1321.221,1322.421,1322.422,1324.221,1324.221,1325.222,0,0,0,1,1,"resources/F7Fbh0.png",1,1316.752,1318.303,"space",1.511,NA
NA,NA,NA,NA,NA,NA,NA,50,"Female","2025-11-21_14h24.53.723","Category_Training_NoLabel","2024.2.4","MacIntel",37.03703704,NA,NA,NA,NA,NA,NA,NA,NA,NA,NA,1325.224,"[""left""]",1327.51,0,FALSE,1,6,NA,1327.51,1328.708,1328.708,1330.508,1330.508,1331.507,0,1,1,12,1,"resources/F8Mah0.png",2,NA,NA,NA,NA,NA
NA,NA,NA,NA,NA,NA,NA,50,"Female","2025-11-21_14h24.53.723","Category_Training_NoLabel","2024.2.4","MacIntel",37.03703704,NA,NA,NA,NA,NA,NA,NA,NA,NA,NA,1331.508,"[""down""]",1333.925,0,TRUE,0,6,NA,1333.926,1335.126,1335.127,1336.928,1336.928,1337.927,0,2,2,3,1,"resources/F7Fdh0.png",1,NA,NA,NA,NA,NA
NA,NA,NA,NA,NA,NA,NA,50,"Female","2025-11-21_14h24.53.723","Category_Training_NoLabel","2024.2.4","MacIntel",37.03703704,NA,NA,NA,NA,NA,NA,NA,NA,NA,NA,1337.929,"[""right""]",1339.978,0,TRUE,0,6,NA,1339.978,1341.178,1341.179,1342.979,1342.979,1343.98,0,3,3,7,1,"resources/F7Mdh0.png",1,NA,NA,NA,NA,NA
NA,NA,NA,NA,NA,NA,NA,50,"Female","2025-11-21_14h24.53.723","Category_Training_NoLabel","2024.2.4","MacIntel",37.03703704,NA,NA,NA,NA,NA,NA,NA,NA,NA,NA,1343.981,"[""down""]",1346.281,0,FALSE,1,6,NA,1346.282,1347.481,1347.481,1349.282,1349.282,1350.283,0,4,4,13,1,"resources/F8Mbh0.png",2,NA,NA,NA,NA,NA
NA,NA,NA,NA,NA,NA,NA,50,"Female","2025-11-21_14h24.53.723","Category_Training_NoLabel","2024.2.4","MacIntel",37.03703704,NA,NA,NA,NA,NA,NA,NA,NA,NA,NA,1350.283,"[""down""]",1352.304,0,TRUE,0,6,NA,1352.304,1353.501,1353.502,1355.303,1355.303,1356.303,0,5,5,6,1,"resources/F7Mch0.png",1,NA,NA,NA,NA,NA
NA,NA,NA,NA,NA,NA,NA,50,"Female","2025-11-21_14h24.53.723","Category_Training_NoLabel","2024.2.4","MacIntel",37.03703704,NA,NA,NA,NA,NA,NA,NA,NA,NA,NA,1356.305,"[""up""]",1358.205,0,FALSE,1,6,NA,1358.206,1359.405,1359.406,1361.204,1361.205,1362.206,0,6,6,8,1,"resources/F8Fah0.png",2,NA,NA,NA,NA,NA
NA,NA,NA,NA,NA,NA,NA,50,"Female","2025-11-21_14h24.53.723","Category_Training_NoLabel","2024.2.4","MacIntel",37.03703704,NA,NA,NA,NA,NA,NA,NA,NA,NA,NA,1362.208,"[""down""]",1364.456,0,FALSE,1,6,NA,1364.456,1365.656,1365.656,1367.457,1367.457,1368.457,0,7,7,10,1,"resources/F8Fch0.png",2,NA,NA,NA,NA,NA
NA,NA,NA,NA,NA,NA,NA,50,"Female","2025-11-21_14h24.53.723","Category_Training_NoLabel","2024.2.4","MacIntel",37.03703704,NA,NA,NA,NA,NA,NA,NA,NA,NA,NA,1368.457,"[""down""]",1370.795,0,TRUE,0,6,NA,1370.796,1371.993,1371.995,1373.795,1373.796,1374.794,0,8,8,0,1,"resources/F7Fah0.png",1,NA,NA,NA,NA,NA
NA,NA,NA,NA,NA,NA,NA,50,"Female","2025-11-21_14h24.53.723","Category_Training_NoLabel","2024.2.4","MacIntel",37.03703704,NA,NA,NA,NA,NA,NA,NA,NA,NA,NA,1374.797,"[""left""]",1377.079,0,FALSE,1,6,NA,1377.079,1378.279,1378.279,1380.08,1380.08,1381.08,0,9,9,14,1,"resources/F8Mch0.png",2,NA,NA,NA,NA,NA
NA,NA,NA,NA,NA,NA,NA,50,"Female","2025-11-21_14h24.53.723","Category_Training_NoLabel","2024.2.4","MacIntel",37.03703704,NA,NA,NA,NA,NA,NA,NA,NA,NA,NA,1381.08,"[""down""]",1383.035,0,TRUE,0,6,NA,1383.035,1384.233,1384.234,1386.034,1386.035,1387.034,0,10,10,4,1,"resources/F7Mah0.png",1,NA,NA,NA,NA,NA
NA,NA,NA,NA,NA,NA,NA,50,"Female","2025-11-21_14h24.53.723","Category_Training_NoLabel","2024.2.4","MacIntel",37.03703704,NA,NA,NA,NA,NA,NA,NA,NA,NA,NA,1387.036,"[""left""]",1392.286,0,FALSE,1,6,NA,1392.287,1393.486,1393.486,1395.286,1395.286,1396.288,0,11,11,15,1,"resources/F8Mdh0.png",2,NA,NA,NA,NA,NA
NA,NA,NA,NA,NA,NA,NA,50,"Female","2025-11-21_14h24.53.723","Category_Training_NoLabel","2024.2.4","MacIntel",37.03703704,NA,NA,NA,NA,NA,NA,NA,NA,NA,NA,1396.288,"[""left""]",1398.575,0,FALSE,1,6,NA,1398.575,1399.773,1399.774,1401.575,1401.575,1402.575,0,12,12,9,1,"resources/F8Fbh0.png",2,NA,NA,NA,NA,NA
NA,NA,NA,NA,NA,NA,NA,50,"Female","2025-11-21_14h24.53.723","Category_Training_NoLabel","2024.2.4","MacIntel",37.03703704,NA,NA,NA,NA,NA,NA,NA,NA,NA,NA,1402.577,"[""right""]",1404.491,0,TRUE,0,6,NA,1404.492,1405.692,1405.693,1407.493,1407.493,1408.494,0,13,13,5,1,"resources/F7Mbh0.png",1,NA,NA,NA,NA,NA
NA,NA,NA,NA,NA,NA,NA,50,"Female","2025-11-21_14h24.53.723","Category_Training_NoLabel","2024.2.4","MacIntel",37.03703704,NA,NA,NA,NA,NA,NA,NA,NA,NA,NA,1408.494,"[""down""]",1410.714,0,TRUE,0,6,NA,1410.715,1411.913,1411.914,1413.713,1413.714,1414.715,0,14,14,2,1,"resources/F7Fch0.png",1,NA,NA,NA,NA,NA
NA,NA,NA,NA,NA,NA,NA,50,"Female","2025-11-21_14h24.53.723","Category_Training_NoLabel","2024.2.4","MacIntel",37.03703704,NA,NA,NA,NA,NA,NA,NA,NA,NA,NA,1414.716,"[""down""]",1416.763,0,FALSE,1,6,NA,1416.764,1417.965,1417.965,1419.765,1419.765,1420.766,0,15,15,11,1,"resources/F8Fdh0.png",2,NA,NA,NA,NA,NA
NA,NA,NA,NA,NA,NA,NA,50,"Female","2025-11-21_14h24.53.723","Category_Training_NoLabel","2024.2.4","MacIntel",37.03703704,NA,NA,NA,NA,NA,NA,NA,NA,NA,NA,1424.009,"[""up""]",1426.652,1,FALSE,0,7,NA,1426.652,1427.855,1427.856,1429.654,1429.654,1430.655,0,0,0,3,1,"resources/F7Fdh0.png",1,1420.767,1424.001,"space",3.2,NA
NA,NA,NA,NA,NA,NA,NA,50,"Female","2025-11-21_14h24.53.723","Category_Training_NoLabel","2024.2.4","MacIntel",37.03703704,NA,NA,NA,NA,NA,NA,NA,NA,NA,NA,1430.657,"[""up""]",1432.491,0,FALSE,1,7,NA,1432.492,1433.69,1433.691,1435.491,1435.491,1436.492,0,1,1,11,1,"resources/F8Fdh0.png",2,NA,NA,NA,NA,NA
NA,NA,NA,NA,NA,NA,NA,50,"Female","2025-11-21_14h24.53.723","Category_Training_NoLabel","2024.2.4","MacIntel",37.03703704,NA,NA,NA,NA,NA,NA,NA,NA,NA,NA,1436.493,"[""down""]",1438.76,1,FALSE,0,7,NA,1438.762,1439.959,1439.96,1441.76,1441.76,1442.76,0,2,2,7,1,"resources/F7Mdh0.png",1,NA,NA,NA,NA,NA
NA,NA,NA,NA,NA,NA,NA,50,"Female","2025-11-21_14h24.53.723","Category_Training_NoLabel","2024.2.4","MacIntel",37.03703704,NA,NA,NA,NA,NA,NA,NA,NA,NA,NA,1442.761,"[""up""]",1444.644,0,FALSE,1,7,NA,1444.645,1445.845,1445.845,1447.646,1447.646,1448.646,0,3,3,15,1,"resources/F8Mdh0.png",2,NA,NA,NA,NA,NA
NA,NA,NA,NA,NA,NA,NA,50,"Female","2025-11-21_14h24.53.723","Category_Training_NoLabel","2024.2.4","MacIntel",37.03703704,NA,NA,NA,NA,NA,NA,NA,NA,NA,NA,1448.647,"[""down""]",1450.58,0,TRUE,0,7,NA,1450.58,1451.781,1451.781,1453.581,1453.581,1454.582,0,4,4,6,1,"resources/F7Mch0.png",1,NA,NA,NA,NA,NA
NA,NA,NA,NA,NA,NA,NA,50,"Female","2025-11-21_14h24.53.723","Category_Training_NoLabel","2024.2.4","MacIntel",37.03703704,NA,NA,NA,NA,NA,NA,NA,NA,NA,NA,1454.583,"[""right""]",1456.55,0,FALSE,1,7,NA,1456.55,1457.75,1457.751,1459.551,1459.551,1460.552,0,5,5,9,1,"resources/F8Fbh0.png",2,NA,NA,NA,NA,NA
NA,NA,NA,NA,NA,NA,NA,50,"Female","2025-11-21_14h24.53.723","Category_Training_NoLabel","2024.2.4","MacIntel",37.03703704,NA,NA,NA,NA,NA,NA,NA,NA,NA,NA,1460.552,"[""up""]",1462.369,0,FALSE,1,7,NA,1462.37,1463.57,1463.571,1465.371,1465.372,1466.371,0,6,6,8,1,"resources/F8Fah0.png",2,NA,NA,NA,NA,NA
NA,NA,NA,NA,NA,NA,NA,50,"Female","2025-11-21_14h24.53.723","Category_Training_NoLabel","2024.2.4","MacIntel",37.03703704,NA,NA,NA,NA,NA,NA,NA,NA,NA,NA,1466.373,"[""down""]",1468.675,0,TRUE,0,7,NA,1468.675,1469.874,1469.875,1471.674,1471.674,1472.675,0,7,7,2,1,"resources/F7Fch0.png",1,NA,NA,NA,NA,NA
NA,NA,NA,NA,NA,NA,NA,50,"Female","2025-11-21_14h24.53.723","Category_Training_NoLabel","2024.2.4","MacIntel",37.03703704,NA,NA,NA,NA,NA,NA,NA,NA,NA,NA,1472.676,"[""left""]",1474.657,0,FALSE,1,7,NA,1474.658,1475.858,1475.858,1477.66,1477.66,1478.645,0,8,8,14,1,"resources/F8Mch0.png",2,NA,NA,NA,NA,NA
NA,NA,NA,NA,NA,NA,NA,50,"Female","2025-11-21_14h24.53.723","Category_Training_NoLabel","2024.2.4","MacIntel",37.03703704,NA,NA,NA,NA,NA,NA,NA,NA,NA,NA,1478.646,"[""down""]",1480.828,1,FALSE,0,7,NA,1480.829,1482.029,1482.029,1483.829,1483.829,1484.829,0,9,9,5,1,"resources/F7Mbh0.png",1,NA,NA,NA,NA,NA
NA,NA,NA,NA,NA,NA,NA,50,"Female","2025-11-21_14h24.53.723","Category_Training_NoLabel","2024.2.4","MacIntel",37.03703704,NA,NA,NA,NA,NA,NA,NA,NA,NA,NA,1484.83,"[""right""]",1486.713,0,FALSE,1,7,NA,1486.714,1487.915,1487.915,1489.715,1489.716,1490.716,0,10,10,10,1,"resources/F8Fch0.png",2,NA,NA,NA,NA,NA
NA,NA,NA,NA,NA,NA,NA,50,"Female","2025-11-21_14h24.53.723","Category_Training_NoLabel","2024.2.4","MacIntel",37.03703704,NA,NA,NA,NA,NA,NA,NA,NA,NA,NA,1490.716,"[""left""]",1492.736,1,FALSE,0,7,NA,1492.736,1493.936,1493.937,1495.735,1495.735,1496.736,0,11,11,1,1,"resources/F7Fbh0.png",1,NA,NA,NA,NA,NA
NA,NA,NA,NA,NA,NA,NA,50,"Female","2025-11-21_14h24.53.723","Category_Training_NoLabel","2024.2.4","MacIntel",37.03703704,NA,NA,NA,NA,NA,NA,NA,NA,NA,NA,1496.738,"[""up""]",1498.67,0,FALSE,1,7,NA,1498.671,1499.871,1499.872,1501.671,1501.671,1502.672,0,12,12,12,1,"resources/F8Mah0.png",2,NA,NA,NA,NA,NA
NA,NA,NA,NA,NA,NA,NA,50,"Female","2025-11-21_14h24.53.723","Category_Training_NoLabel","2024.2.4","MacIntel",37.03703704,NA,NA,NA,NA,NA,NA,NA,NA,NA,NA,1502.674,"[""down""]",1504.94,0,TRUE,0,7,NA,1504.942,1506.141,1506.141,1507.943,1507.943,1508.942,0,13,13,0,1,"resources/F7Fah0.png",1,NA,NA,NA,NA,NA
NA,NA,NA,NA,NA,NA,NA,50,"Female","2025-11-21_14h24.53.723","Category_Training_NoLabel","2024.2.4","MacIntel",37.03703704,NA,NA,NA,NA,NA,NA,NA,NA,NA,NA,1508.944,"[""right""]",1511.045,0,TRUE,0,7,NA,1511.045,1512.244,1512.245,1514.044,1514.044,1515.045,0,14,14,4,1,"resources/F7Mah0.png",1,NA,NA,NA,NA,NA
NA,NA,NA,NA,NA,NA,NA,50,"Female","2025-11-21_14h24.53.723","Category_Training_NoLabel","2024.2.4","MacIntel",37.03703704,NA,NA,NA,NA,NA,NA,NA,NA,NA,NA,1515.047,"[""up""]",1516.895,0,FALSE,1,7,NA,1516.895,1518.095,1518.095,1519.896,1519.896,1520.896,0,15,15,13,1,"resources/F8Mbh0.png",2,NA,NA,NA,NA,NA
NA,NA,NA,NA,NA,NA,NA,50,"Female","2025-11-21_14h24.53.723","Category_Training_NoLabel","2024.2.4","MacIntel",37.03703704,NA,NA,NA,NA,NA,NA,NA,NA,NA,NA,1522.59,"[""left""]",1525.633,0,TRUE,0,8,NA,1525.635,1526.833,1526.835,1528.635,1528.635,1529.636,0,0,0,4,1,"resources/F7Mah0.png",1,1520.897,1522.582,"space",1.646,NA
NA,NA,NA,NA,NA,NA,NA,50,"Female","2025-11-21_14h24.53.723","Category_Training_NoLabel","2024.2.4","MacIntel",37.03703704,NA,NA,NA,NA,NA,NA,NA,NA,NA,NA,1529.637,"[""left""]",1532.252,0,FALSE,1,8,NA,1532.253,1533.452,1533.452,1535.254,1535.254,1536.254,0,1,1,15,1,"resources/F8Mdh0.png",2,NA,NA,NA,NA,NA
NA,NA,NA,NA,NA,NA,NA,50,"Female","2025-11-21_14h24.53.723","Category_Training_NoLabel","2024.2.4","MacIntel",37.03703704,NA,NA,NA,NA,NA,NA,NA,NA,NA,NA,1536.255,"[""down""]",1538.455,0,TRUE,0,8,NA,1538.456,1539.657,1539.658,1541.458,1541.458,1542.458,0,2,2,6,1,"resources/F7Mch0.png",1,NA,NA,NA,NA,NA
NA,NA,NA,NA,NA,NA,NA,50,"Female","2025-11-21_14h24.53.723","Category_Training_NoLabel","2024.2.4","MacIntel",37.03703704,NA,NA,NA,NA,NA,NA,NA,NA,NA,NA,1542.46,"[""up""]",1544.542,0,TRUE,0,8,NA,1544.542,1545.741,1545.741,1547.543,1547.543,1548.543,0,3,3,5,1,"resources/F7Mbh0.png",1,NA,NA,NA,NA,NA
NA,NA,NA,NA,NA,NA,NA,50,"Female","2025-11-21_14h24.53.723","Category_Training_NoLabel","2024.2.4","MacIntel",37.03703704,NA,NA,NA,NA,NA,NA,NA,NA,NA,NA,1548.544,"[""right""]",1550.464,0,FALSE,1,8,NA,1550.464,1551.662,1551.662,1553.463,1553.463,1554.464,0,4,4,13,1,"resources/F8Mbh0.png",2,NA,NA,NA,NA,NA
NA,NA,NA,NA,NA,NA,NA,50,"Female","2025-11-21_14h24.53.723","Category_Training_NoLabel","2024.2.4","MacIntel",37.03703704,NA,NA,NA,NA,NA,NA,NA,NA,NA,NA,1554.465,"[""up""]",1556.73,0,FALSE,1,8,NA,1556.73,1557.933,1557.933,1559.732,1559.733,1560.734,0,5,5,10,1,"resources/F8Fch0.png",2,NA,NA,NA,NA,NA
NA,NA,NA,NA,NA,NA,NA,50,"Female","2025-11-21_14h24.53.723","Category_Training_NoLabel","2024.2.4","MacIntel",37.03703704,NA,NA,NA,NA,NA,NA,NA,NA,NA,NA,1560.735,"[""up""]",1562.516,1,FALSE,0,8,NA,1562.516,1563.716,1563.716,1565.518,1565.518,1566.519,0,6,6,3,1,"resources/F7Fdh0.png",1,NA,NA,NA,NA,NA
NA,NA,NA,NA,NA,NA,NA,50,"Female","2025-11-21_14h24.53.723","Category_Training_NoLabel","2024.2.4","MacIntel",37.03703704,NA,NA,NA,NA,NA,NA,NA,NA,NA,NA,1566.519,"[""up""]",1568.286,0,FALSE,1,8,NA,1568.287,1569.487,1569.487,1571.288,1571.288,1572.288,0,7,7,9,1,"resources/F8Fbh0.png",2,NA,NA,NA,NA,NA
NA,NA,NA,NA,NA,NA,NA,50,"Female","2025-11-21_14h24.53.723","Category_Training_NoLabel","2024.2.4","MacIntel",37.03703704,NA,NA,NA,NA,NA,NA,NA,NA,NA,NA,1572.289,"[""right""]",1574.291,1,FALSE,0,8,NA,1574.293,1575.49,1575.492,1577.292,1577.292,1578.293,0,8,8,0,1,"resources/F7Fah0.png",1,NA,NA,NA,NA,NA
NA,NA,NA,NA,NA,NA,NA,50,"Female","2025-11-21_14h24.53.723","Category_Training_NoLabel","2024.2.4","MacIntel",37.03703704,NA,NA,NA,NA,NA,NA,NA,NA,NA,NA,1578.294,"[""up""]",1580.442,0,FALSE,1,8,NA,1580.443,1581.642,1581.642,1583.442,1583.442,1584.443,0,9,9,12,1,"resources/F8Mah0.png",2,NA,NA,NA,NA,NA
NA,NA,NA,NA,NA,NA,NA,50,"Female","2025-11-21_14h24.53.723","Category_Training_NoLabel","2024.2.4","MacIntel",37.03703704,NA,NA,NA,NA,NA,NA,NA,NA,NA,NA,1584.444,"[""up""]",1586.498,0,TRUE,0,8,NA,1586.499,1587.695,1587.696,1589.497,1589.497,1590.498,0,10,10,2,1,"resources/F7Fch0.png",1,NA,NA,NA,NA,NA
NA,NA,NA,NA,NA,NA,NA,50,"Female","2025-11-21_14h24.53.723","Category_Training_NoLabel","2024.2.4","MacIntel",37.03703704,NA,NA,NA,NA,NA,NA,NA,NA,NA,NA,1590.499,"[""left""]",1592.465,0,FALSE,1,8,NA,1592.467,1593.665,1593.666,1595.466,1595.467,1596.466,0,11,11,8,1,"resources/F8Fah0.png",2,NA,NA,NA,NA,NA
NA,NA,NA,NA,NA,NA,NA,50,"Female","2025-11-21_14h24.53.723","Category_Training_NoLabel","2024.2.4","MacIntel",37.03703704,NA,NA,NA,NA,NA,NA,NA,NA,NA,NA,1596.467,"[""right""]",1598.469,0,TRUE,0,8,NA,1598.47,1599.668,1599.669,1601.47,1601.47,1602.469,0,12,12,7,1,"resources/F7Mdh0.png",1,NA,NA,NA,NA,NA
NA,NA,NA,NA,NA,NA,NA,50,"Female","2025-11-21_14h24.53.723","Category_Training_NoLabel","2024.2.4","MacIntel",37.03703704,NA,NA,NA,NA,NA,NA,NA,NA,NA,NA,1602.471,"[""up""]",1604.62,0,FALSE,1,8,NA,1604.62,1605.82,1605.82,1607.621,1607.621,1608.621,0,13,13,14,1,"resources/F8Mch0.png",2,NA,NA,NA,NA,NA
NA,NA,NA,NA,NA,NA,NA,50,"Female","2025-11-21_14h24.53.723","Category_Training_NoLabel","2024.2.4","MacIntel",37.03703704,NA,NA,NA,NA,NA,NA,NA,NA,NA,NA,1608.622,"[""right""]",1610.655,0,FALSE,1,8,NA,1610.656,1611.857,1611.857,1613.657,1613.657,1614.658,0,14,14,11,1,"resources/F8Fdh0.png",2,NA,NA,NA,NA,NA
NA,NA,NA,NA,NA,NA,NA,50,"Female","2025-11-21_14h24.53.723","Category_Training_NoLabel","2024.2.4","MacIntel",37.03703704,NA,NA,NA,NA,NA,NA,NA,NA,NA,NA,1614.658,"[""right""]",1616.645,1,FALSE,0,8,NA,1616.645,1617.843,1617.844,1619.645,1619.645,1620.644,0,15,15,1,1,"resources/F7Fbh0.png",1,NA,NA,NA,NA,NA
NA,NA,NA,NA,NA,NA,NA,50,"Female","2025-11-21_14h24.53.723","Category_Training_NoLabel","2024.2.4","MacIntel",37.03703704,NA,NA,NA,NA,NA,NA,NA,NA,NA,NA,1622.486,"[""down""]",1625.296,0,TRUE,0,9,NA,1625.298,1626.498,1626.499,1628.298,1628.298,1629.299,0,0,0,5,1,"resources/F7Mbh0.png",1,1620.648,1622.478,"space",1.798,NA
NA,NA,NA,NA,NA,NA,NA,50,"Female","2025-11-21_14h24.53.723","Category_Training_NoLabel","2024.2.4","MacIntel",37.03703704,NA,NA,NA,NA,NA,NA,NA,NA,NA,NA,1629.301,"[""up""]",1631.049,0,FALSE,1,9,NA,1631.05,1632.251,1632.252,1634.05,1634.051,1635.052,0,1,1,8,1,"resources/F8Fah0.png",2,NA,NA,NA,NA,NA
NA,NA,NA,NA,NA,NA,NA,50,"Female","2025-11-21_14h24.53.723","Category_Training_NoLabel","2024.2.4","MacIntel",37.03703704,NA,NA,NA,NA,NA,NA,NA,NA,NA,NA,1635.053,"[""down""]",1637.618,0,TRUE,0,9,NA,1637.62,1638.82,1638.82,1640.622,1640.622,1641.621,0,2,2,0,1,"resources/F7Fah0.png",1,NA,NA,NA,NA,NA
NA,NA,NA,NA,NA,NA,NA,50,"Female","2025-11-21_14h24.53.723","Category_Training_NoLabel","2024.2.4","MacIntel",37.03703704,NA,NA,NA,NA,NA,NA,NA,NA,NA,NA,1641.624,"[""left""]",1643.672,0,FALSE,1,9,NA,1643.672,1644.873,1644.873,1646.672,1646.672,1647.674,0,3,3,9,1,"resources/F8Fbh0.png",2,NA,NA,NA,NA,NA
NA,NA,NA,NA,NA,NA,NA,50,"Female","2025-11-21_14h24.53.723","Category_Training_NoLabel","2024.2.4","MacIntel",37.03703704,NA,NA,NA,NA,NA,NA,NA,NA,NA,NA,1647.674,"[""left""]",1649.375,0,FALSE,1,9,NA,1649.375,1650.575,1650.575,1652.376,1652.376,1653.376,0,4,4,15,1,"resources/F8Mdh0.png",2,NA,NA,NA,NA,NA
NA,NA,NA,NA,NA,NA,NA,50,"Female","2025-11-21_14h24.53.723","Category_Training_NoLabel","2024.2.4","MacIntel",37.03703704,NA,NA,NA,NA,NA,NA,NA,NA,NA,NA,1653.377,"[""up""]",1655.411,0,FALSE,1,9,NA,1655.411,1656.611,1656.611,1658.412,1658.412,1659.412,0,5,5,13,1,"resources/F8Mbh0.png",2,NA,NA,NA,NA,NA
NA,NA,NA,NA,NA,NA,NA,50,"Female","2025-11-21_14h24.53.723","Category_Training_NoLabel","2024.2.4","MacIntel",37.03703704,NA,NA,NA,NA,NA,NA,NA,NA,NA,NA,1659.412,"[""up""]",1661.446,0,TRUE,0,9,NA,1661.447,1662.647,1662.647,1664.447,1664.448,1665.449,0,6,6,7,1,"resources/F7Mdh0.png",1,NA,NA,NA,NA,NA
NA,NA,NA,NA,NA,NA,NA,50,"Female","2025-11-21_14h24.53.723","Category_Training_NoLabel","2024.2.4","MacIntel",37.03703704,NA,NA,NA,NA,NA,NA,NA,NA,NA,NA,1665.449,"[""up""]",1667.382,0,FALSE,1,9,NA,1667.383,1668.583,1668.584,1670.386,1670.386,1671.385,0,7,7,12,1,"resources/F8Mah0.png",2,NA,NA,NA,NA,NA
NA,NA,NA,NA,NA,NA,NA,50,"Female","2025-11-21_14h24.53.723","Category_Training_NoLabel","2024.2.4","MacIntel",37.03703704,NA,NA,NA,NA,NA,NA,NA,NA,NA,NA,1671.388,"[""right""]",1673.502,0,TRUE,0,9,NA,1673.503,1674.703,1674.704,1676.503,1676.503,1677.504,0,8,8,6,1,"resources/F7Mch0.png",1,NA,NA,NA,NA,NA
NA,NA,NA,NA,NA,NA,NA,50,"Female","2025-11-21_14h24.53.723","Category_Training_NoLabel","2024.2.4","MacIntel",37.03703704,NA,NA,NA,NA,NA,NA,NA,NA,NA,NA,1677.504,"[""right""]",1679.472,0,FALSE,1,9,NA,1679.472,1680.672,1680.673,1682.474,1682.474,1683.473,0,9,9,11,1,"resources/F8Fdh0.png",2,NA,NA,NA,NA,NA
NA,NA,NA,NA,NA,NA,NA,50,"Female","2025-11-21_14h24.53.723","Category_Training_NoLabel","2024.2.4","MacIntel",37.03703704,NA,NA,NA,NA,NA,NA,NA,NA,NA,NA,1683.474,"[""up""]",1685.461,0,FALSE,1,9,NA,1685.461,1686.661,1686.661,1688.46,1688.46,1689.46,0,10,10,10,1,"resources/F8Fch0.png",2,NA,NA,NA,NA,NA
NA,NA,NA,NA,NA,NA,NA,50,"Female","2025-11-21_14h24.53.723","Category_Training_NoLabel","2024.2.4","MacIntel",37.03703704,NA,NA,NA,NA,NA,NA,NA,NA,NA,NA,1689.46,"[""right""]",1691.28,0,FALSE,1,9,NA,1691.281,1692.48,1692.481,1694.28,1694.28,1695.281,0,11,11,14,1,"resources/F8Mch0.png",2,NA,NA,NA,NA,NA
NA,NA,NA,NA,NA,NA,NA,50,"Female","2025-11-21_14h24.53.723","Category_Training_NoLabel","2024.2.4","MacIntel",37.03703704,NA,NA,NA,NA,NA,NA,NA,NA,NA,NA,1695.282,"[""up""]",1697.216,0,TRUE,0,9,NA,1697.217,1698.414,1698.415,1700.216,1700.216,1701.217,0,12,12,2,1,"resources/F7Fch0.png",1,NA,NA,NA,NA,NA
NA,NA,NA,NA,NA,NA,NA,50,"Female","2025-11-21_14h24.53.723","Category_Training_NoLabel","2024.2.4","MacIntel",37.03703704,NA,NA,NA,NA,NA,NA,NA,NA,NA,NA,1701.218,"[""down""]",1703.599,0,TRUE,0,9,NA,1703.6,1704.801,1704.801,1706.601,1706.601,1707.602,0,13,13,4,1,"resources/F7Mah0.png",1,NA,NA,NA,NA,NA
NA,NA,NA,NA,NA,NA,NA,50,"Female","2025-11-21_14h24.53.723","Category_Training_NoLabel","2024.2.4","MacIntel",37.03703704,NA,NA,NA,NA,NA,NA,NA,NA,NA,NA,1707.602,"[""left""]",1709.519,1,FALSE,0,9,NA,1709.521,1710.721,1710.722,1712.521,1712.521,1713.523,0,14,14,1,1,"resources/F7Fbh0.png",1,NA,NA,NA,NA,NA
NA,NA,NA,NA,NA,NA,NA,50,"Female","2025-11-21_14h24.53.723","Category_Training_NoLabel","2024.2.4","MacIntel",37.03703704,NA,NA,NA,NA,NA,NA,NA,NA,NA,NA,1713.524,"[""left""]",1715.808,1,FALSE,0,9,NA,1715.809,1717.007,1717.007,1718.809,1718.809,1719.809,0,15,15,3,1,"resources/F7Fdh0.png",1,NA,NA,NA,NA,NA
