"counterbalance_group","counterbalance_remaining","consent_started","consent_stopped","key_resp_7_keys","key_resp_7_rt","key_resp_7_duration","age","gender","date","exp_name","psychopy_version","os","frame_rate","instructions_started","instructions_stopped","key_resp_2_keys","key_resp_2_rt","key_resp_2_duration","instructions_2_started","instructions_2_stopped","key_resp_4_keys","key_resp_4_rt","key_resp_4_duration","trial_started","key_resp_actual","trial_stopped","correct","approach","friendly","block","key_resp_keys","feedback_started","feedback_stopped","cue_started","cue_stopped","intertrial_interval_started","intertrial_interval_stopped","trials_this_rep_n","trials_this_trial_n","trials_this_n","trials_this_index","trials_ran","alien_stim","category","block_feedback_started","block_feedback_stopped","key_resp_3_keys","key_resp_3_rt","key_resp_3_duration","end_game_started","end_game_stopped","key_resp_5_keys","key_resp_5_rt","key_resp_5_duration"
"A",NA,0.618,14.7123,"space",14.041,NA,49,"male","2025-11-21_18h35.39.428","Category_Training_NoLabel","2024.2.4","MacIntel",57.47126437,NA,NA,NA,NA,NA,NA,NA,NA,NA,NA,NA,NA,NA,NA,NA,NA,NA,NA,NA,NA,NA,NA,NA,NA,NA,NA,NA,NA,NA,NA,NA,NA,NA,NA,NA,NA,NA,NA,NA,NA,NA
NA,NA,NA,NA,NA,NA,NA,49,"male","2025-11-21_18h35.39.428","Category_Training_NoLabel","2024.2.4","MacIntel",57.47126437,14.7125,43.592,"space",28.8508,NA,NA,NA,NA,NA,NA,NA,NA,NA,NA,NA,NA,NA,NA,NA,NA,NA,NA,NA,NA,NA,NA,NA,NA,NA,NA,NA,NA,NA,NA,NA,NA,NA,NA,NA,NA,NA
NA,NA,NA,NA,NA,NA,NA,49,"male","2025-11-21_18h35.39.428","Category_Training_NoLabel","2024.2.4","MacIntel",57.47126437,NA,NA,NA,NA,NA,43.5921,74.9783,"space",31.3554,NA,NA,NA,NA,NA,NA,NA,NA,NA,NA,NA,NA,NA,NA,NA,NA,NA,NA,NA,NA,NA,NA,NA,NA,NA,NA,NA,NA,NA,NA,NA,NA
NA,NA,NA,NA,NA,NA,NA,49,"male","2025-11-21_18h35.39.428","Category_Training_NoLabel","2024.2.4","MacIntel",57.47126437,NA,NA,NA,NA,NA,NA,NA,NA,NA,NA,74.995,"[""up""]",78.9273,0,TRUE,0,1,NA,78.9282,80.1143,80.1148,81.9224,81.9225,82.9306,0,0,0,15,1,"resources/F8Mdh0.png",2,NA,NA,NA,NA,NA,NA,NA,NA,NA,NA
NA,NA,NA,NA,NA,NA,NA,49,"male","2025-11-21_18h35.39.428","Category_Training_NoLabel","2024.2.4","MacIntel",57.47126437,NA,NA,NA,NA,NA,NA,NA,NA,NA,NA,82.9311,"[""up""]",86.0849,1,FALSE,0,1,NA,86.0853,87.2781,87.2783,89.063,89.063,90.0925,0,1,1,12,1,"resources/F8Mah0.png",2,NA,NA,NA,NA,NA,NA,NA,NA,NA,NA
NA,NA,NA,NA,NA,NA,NA,49,"male","2025-11-21_18h35.39.428","Category_Training_NoLabel","2024.2.4","MacIntel",57.47126437,NA,NA,NA,NA,NA,NA,NA,NA,NA,NA,90.093,"[""right""]",94.0426,0,TRUE,0,1,NA,94.0429,95.2431,95.2433,97.0443,97.0444,98.0459,0,2,2,10,1,"resources/F8Fch0.png",2,NA,NA,NA,NA,NA,NA,NA,NA,NA,NA
NA,NA,NA,NA,NA,NA,NA,49,"male","2025-11-21_18h35.39.428","Category_Training_NoLabel","2024.2.4","MacIntel",57.47126437,NA,NA,NA,NA,NA,NA,NA,NA,NA,NA,98.0463,"[""right""]",100.2491,1,FALSE,0,1,NA,100.2494,101.4471,101.4474,103.2512,103.2513,104.2311,0,3,3,9,1,"resources/F8Fbh0.png",2,NA,NA,NA,NA,NA,NA,NA,NA,NA,NA
NA,NA,NA,NA,NA,NA,NA,49,"male","2025-11-21_18h35.39.428","Category_Training_NoLabel","2024.2.4","MacIntel",57.47126437,NA,NA,NA,NA,NA,NA,NA,NA,NA,NA,104.2316,"[""right""]",107.1964,1,FALSE,0,1,NA,107.1967,108.3925,108.3927,110.1977,110.1977,111.1952,0,4,4,8,1,"resources/F8Fah0.png",2,NA,NA,NA,NA,NA,NA,NA,NA,NA,NA
NA,NA,NA,NA,NA,NA,NA,49,"male","2025-11-21_18h35.39.428","Category_Training_NoLabel","2024.2.4","MacIntel",57.47126437,NA,NA,NA,NA,NA,NA,NA,NA,NA,NA,111.1955,"[""down""]",114.0888,0,FALSE,1,1,NA,114.0891,115.2856,115.2859,117.0673,117.0674,118.0695,0,5,5,7,1,"resources/F7Mdh0.png",1,NA,NA,NA,NA,NA,NA,NA,NA,NA,NA
NA,NA,NA,NA,NA,NA,NA,49,"male","2025-11-21_18h35.39.428","Category_Training_NoLabel","2024.2.4","MacIntel",57.47126437,NA,NA,NA,NA,NA,NA,NA,NA,NA,NA,118.0698,"[""left""]",120.4866,0,TRUE,0,1,NA,120.4869,121.6789,121.679,123.4858,123.4858,124.4806,0,6,6,13,1,"resources/F8Mbh0.png",2,NA,NA,NA,NA,NA,NA,NA,NA,NA,NA
NA,NA,NA,NA,NA,NA,NA,49,"male","2025-11-21_18h35.39.428","Category_Training_NoLabel","2024.2.4","MacIntel",57.47126437,NA,NA,NA,NA,NA,NA,NA,NA,NA,NA,124.4811,"[""left""]",127.7024,0,FALSE,1,1,NA,127.7027,128.9014,128.9016,130.6913,130.6914,131.6873,0,7,7,0,1,"resources/F7Fah0.png",1,NA,NA,NA,NA,NA,NA,NA,NA,NA,NA
NA,NA,NA,NA,NA,NA,NA,49,"male","2025-11-21_18h35.39.428","Category_Training_NoLabel","2024.2.4","MacIntel",57.47126437,NA,NA,NA,NA,NA,NA,NA,NA,NA,NA,131.6876,"[""left""]",133.9804,0,FALSE,1,1,NA,133.9807,135.171,135.1712,136.9881,136.9881,137.9876,0,8,8,6,1,"resources/F7Mch0.png",1,NA,NA,NA,NA,NA,NA,NA,NA,NA,NA
NA,NA,NA,NA,NA,NA,NA,49,"male","2025-11-21_18h35.39.428","Category_Training_NoLabel","2024.2.4","MacIntel",57.47126437,NA,NA,NA,NA,NA,NA,NA,NA,NA,NA,137.988,"[""down""]",140.8929,0,FALSE,1,1,NA,140.8932,142.0878,142.0881,143.8723,143.8723,144.8754,0,9,9,4,1,"resources/F7Mah0.png",1,NA,NA,NA,NA,NA,NA,NA,NA,NA,NA
NA,NA,NA,NA,NA,NA,NA,49,"male","2025-11-21_18h35.39.428","Category_Training_NoLabel","2024.2.4","MacIntel",57.47126437,NA,NA,NA,NA,NA,NA,NA,NA,NA,NA,144.8758,"[""down""]",147.5569,0,FALSE,1,1,NA,147.5573,148.7526,148.7528,150.5523,150.5523,151.5648,0,10,10,2,1,"resources/F7Fch0.png",1,NA,NA,NA,NA,NA,NA,NA,NA,NA,NA
NA,NA,NA,NA,NA,NA,NA,49,"male","2025-11-21_18h35.39.428","Category_Training_NoLabel","2024.2.4","MacIntel",57.47126437,NA,NA,NA,NA,NA,NA,NA,NA,NA,NA,151.5651,"[""up""]",156.8601,1,FALSE,0,1,NA,156.8604,158.0543,158.0544,159.8515,159.8515,160.8686,0,11,11,11,1,"resources/F8Fdh0.png",2,NA,NA,NA,NA,NA,NA,NA,NA,NA,NA
NA,NA,NA,NA,NA,NA,NA,49,"male","2025-11-21_18h35.39.428","Category_Training_NoLabel","2024.2.4","MacIntel",57.47126437,NA,NA,NA,NA,NA,NA,NA,NA,NA,NA,160.869,"[""up""]",163.1622,0,TRUE,0,1,NA,163.1626,164.3381,164.3384,166.1531,166.1531,167.1504,0,12,12,14,1,"resources/F8Mch0.png",2,NA,NA,NA,NA,NA,NA,NA,NA,NA,NA
NA,NA,NA,NA,NA,NA,NA,49,"male","2025-11-21_18h35.39.428","Category_Training_NoLabel","2024.2.4","MacIntel",57.47126437,NA,NA,NA,NA,NA,NA,NA,NA,NA,NA,167.151,"[""down""]",169.9029,1,TRUE,1,1,NA,169.9032,171.097,171.0971,172.8965,172.8966,173.8922,0,13,13,5,1,"resources/F7Mbh0.png",1,NA,NA,NA,NA,NA,NA,NA,NA,NA,NA
NA,NA,NA,NA,NA,NA,NA,49,"male","2025-11-21_18h35.39.428","Category_Training_NoLabel","2024.2.4","MacIntel",57.47126437,NA,NA,NA,NA,NA,NA,NA,NA,NA,NA,173.8926,"[""left""]",176.7688,1,TRUE,1,1,NA,176.7691,177.9626,177.9628,179.7564,179.7564,180.7757,0,14,14,1,1,"resources/F7Fbh0.png",1,NA,NA,NA,NA,NA,NA,NA,NA,NA,NA
NA,NA,NA,NA,NA,NA,NA,49,"male","2025-11-21_18h35.39.428","Category_Training_NoLabel","2024.2.4","MacIntel",57.47126437,NA,NA,NA,NA,NA,NA,NA,NA,NA,NA,180.776,"[""up""]",183.183,1,TRUE,1,1,NA,183.1832,184.3601,184.3602,186.1778,186.1778,187.1726,0,15,15,3,1,"resources/F7Fdh0.png",1,NA,NA,NA,NA,NA,NA,NA,NA,NA,NA
NA,NA,NA,NA,NA,NA,NA,49,"male","2025-11-21_18h35.39.428","Category_Training_NoLabel","2024.2.4","MacIntel",57.47126437,NA,NA,NA,NA,NA,NA,NA,NA,NA,NA,193.8582,"[""up""]",196.5725,0,FALSE,1,2,NA,196.5728,197.7662,197.7663,199.5613,199.5613,200.5607,0,0,0,6,1,"resources/F7Mch0.png",1,187.1733,193.8522,"space",6.6379,NA,NA,NA,NA,NA,NA
NA,NA,NA,NA,NA,NA,NA,49,"male","2025-11-21_18h35.39.428","Category_Training_NoLabel","2024.2.4","MacIntel",57.47126437,NA,NA,NA,NA,NA,NA,NA,NA,NA,NA,200.561,"[""left""]",203.1621,0,FALSE,1,2,NA,203.1624,204.3594,204.3597,206.1585,206.1585,207.1583,0,1,1,0,1,"resources/F7Fah0.png",1,NA,NA,NA,NA,NA,NA,NA,NA,NA,NA
NA,NA,NA,NA,NA,NA,NA,49,"male","2025-11-21_18h35.39.428","Category_Training_NoLabel","2024.2.4","MacIntel",57.47126437,NA,NA,NA,NA,NA,NA,NA,NA,NA,NA,207.1587,"[""left""]",210.6096,0,FALSE,1,2,NA,210.6098,211.8018,211.8019,213.5972,213.5972,214.6013,0,2,2,5,1,"resources/F7Mbh0.png",1,NA,NA,NA,NA,NA,NA,NA,NA,NA,NA
NA,NA,NA,NA,NA,NA,NA,49,"male","2025-11-21_18h35.39.428","Category_Training_NoLabel","2024.2.4","MacIntel",57.47126437,NA,NA,NA,NA,NA,NA,NA,NA,NA,NA,214.6016,"[""right""]",217.0623,1,TRUE,1,2,NA,217.0626,218.2646,218.2648,220.0643,220.0643,221.0588,0,3,3,1,1,"resources/F7Fbh0.png",1,NA,NA,NA,NA,NA,NA,NA,NA,NA,NA
NA,NA,NA,NA,NA,NA,NA,49,"male","2025-11-21_18h35.39.428","Category_Training_NoLabel","2024.2.4","MacIntel",57.47126437,NA,NA,NA,NA,NA,NA,NA,NA,NA,NA,221.0591,"[""up""]",223.4468,1,FALSE,0,2,NA,223.4471,224.6413,224.6415,226.437,226.437,227.4352,0,4,4,15,1,"resources/F8Mdh0.png",2,NA,NA,NA,NA,NA,NA,NA,NA,NA,NA
NA,NA,NA,NA,NA,NA,NA,49,"male","2025-11-21_18h35.39.428","Category_Training_NoLabel","2024.2.4","MacIntel",57.47126437,NA,NA,NA,NA,NA,NA,NA,NA,NA,NA,227.4355,"[""right""]",229.7349,0,FALSE,1,2,NA,229.7352,230.9261,230.9263,232.7438,232.7438,233.7426,0,5,5,2,1,"resources/F7Fch0.png",1,NA,NA,NA,NA,NA,NA,NA,NA,NA,NA
NA,NA,NA,NA,NA,NA,NA,49,"male","2025-11-21_18h35.39.428","Category_Training_NoLabel","2024.2.4","MacIntel",57.47126437,NA,NA,NA,NA,NA,NA,NA,NA,NA,NA,233.7428,"[""down""]",236.3404,1,FALSE,0,2,NA,236.3407,237.5302,237.5304,239.3453,239.3453,240.344,0,6,6,10,1,"resources/F8Fch0.png",2,NA,NA,NA,NA,NA,NA,NA,NA,NA,NA
NA,NA,NA,NA,NA,NA,NA,49,"male","2025-11-21_18h35.39.428","Category_Training_NoLabel","2024.2.4","MacIntel",57.47126437,NA,NA,NA,NA,NA,NA,NA,NA,NA,NA,240.3444,"[""right""]",242.9456,0,TRUE,0,2,NA,242.9459,244.1343,244.1345,245.9305,245.9306,246.9476,0,7,7,13,1,"resources/F8Mbh0.png",2,NA,NA,NA,NA,NA,NA,NA,NA,NA,NA
NA,NA,NA,NA,NA,NA,NA,49,"male","2025-11-21_18h35.39.428","Category_Training_NoLabel","2024.2.4","MacIntel",57.47126437,NA,NA,NA,NA,NA,NA,NA,NA,NA,NA,246.9478,"[""left""]",249.5903,0,TRUE,0,2,NA,249.5905,250.783,250.7832,252.5781,252.5782,253.5941,0,8,8,11,1,"resources/F8Fdh0.png",2,NA,NA,NA,NA,NA,NA,NA,NA,NA,NA
NA,NA,NA,NA,NA,NA,NA,49,"male","2025-11-21_18h35.39.428","Category_Training_NoLabel","2024.2.4","MacIntel",57.47126437,NA,NA,NA,NA,NA,NA,NA,NA,NA,NA,253.5944,"[""left""]",255.9613,1,TRUE,1,2,NA,255.9617,257.1699,257.1701,258.9651,258.9651,259.9559,0,9,9,3,1,"resources/F7Fdh0.png",1,NA,NA,NA,NA,NA,NA,NA,NA,NA,NA
NA,NA,NA,NA,NA,NA,NA,49,"male","2025-11-21_18h35.39.428","Category_Training_NoLabel","2024.2.4","MacIntel",57.47126437,NA,NA,NA,NA,NA,NA,NA,NA,NA,NA,259.9564,"[""left""]",262.1879,0,TRUE,0,2,NA,262.1881,263.3802,263.3804,265.1698,265.1698,266.1701,0,10,10,12,1,"resources/F8Mah0.png",2,NA,NA,NA,NA,NA,NA,NA,NA,NA,NA
NA,NA,NA,NA,NA,NA,NA,49,"male","2025-11-21_18h35.39.428","Category_Training_NoLabel","2024.2.4","MacIntel",57.47126437,NA,NA,NA,NA,NA,NA,NA,NA,NA,NA,266.1704,"[""down""]",268.5973,0,TRUE,0,2,NA,268.5975,269.7899,269.7901,271.5857,271.5857,272.6045,0,11,11,9,1,"resources/F8Fbh0.png",2,NA,NA,NA,NA,NA,NA,NA,NA,NA,NA
NA,NA,NA,NA,NA,NA,NA,49,"male","2025-11-21_18h35.39.428","Category_Training_NoLabel","2024.2.4","MacIntel",57.47126437,NA,NA,NA,NA,NA,NA,NA,NA,NA,NA,272.6049,"[""down""]",275.2442,1,FALSE,0,2,NA,275.2444,276.4341,276.4343,278.221,278.221,279.2389,0,12,12,14,1,"resources/F8Mch0.png",2,NA,NA,NA,NA,NA,NA,NA,NA,NA,NA
NA,NA,NA,NA,NA,NA,NA,49,"male","2025-11-21_18h35.39.428","Category_Training_NoLabel","2024.2.4","MacIntel",57.47126437,NA,NA,NA,NA,NA,NA,NA,NA,NA,NA,279.2392,"[""right""]",281.476,0,FALSE,1,2,NA,281.4763,282.6691,282.6692,284.4718,284.4719,285.4829,0,13,13,7,1,"resources/F7Mdh0.png",1,NA,NA,NA,NA,NA,NA,NA,NA,NA,NA
NA,NA,NA,NA,NA,NA,NA,49,"male","2025-11-21_18h35.39.428","Category_Training_NoLabel","2024.2.4","MacIntel",57.47126437,NA,NA,NA,NA,NA,NA,NA,NA,NA,NA,285.4833,"[""left""]",287.6907,1,TRUE,1,2,NA,287.6909,288.8875,288.8877,290.6842,290.6842,291.6821,0,14,14,4,1,"resources/F7Mah0.png",1,NA,NA,NA,NA,NA,NA,NA,NA,NA,NA
NA,NA,NA,NA,NA,NA,NA,49,"male","2025-11-21_18h35.39.428","Category_Training_NoLabel","2024.2.4","MacIntel",57.47126437,NA,NA,NA,NA,NA,NA,NA,NA,NA,NA,291.6824,"[""up""]",294.0058,1,FALSE,0,2,NA,294.006,295.1998,295.2,296.9948,296.9948,297.9958,0,15,15,8,1,"resources/F8Fah0.png",2,NA,NA,NA,NA,NA,NA,NA,NA,NA,NA
NA,NA,NA,NA,NA,NA,NA,49,"male","2025-11-21_18h35.39.428","Category_Training_NoLabel","2024.2.4","MacIntel",57.47126437,NA,NA,NA,NA,NA,NA,NA,NA,NA,NA,299.8522,"[""right""]",302.2584,1,FALSE,0,3,NA,302.2587,303.458,303.4581,305.2404,305.2404,306.2513,0,0,0,12,1,"resources/F8Mah0.png",2,297.9965,299.8488,"space",1.8214,NA,NA,NA,NA,NA,NA
NA,NA,NA,NA,NA,NA,NA,49,"male","2025-11-21_18h35.39.428","Category_Training_NoLabel","2024.2.4","MacIntel",57.47126437,NA,NA,NA,NA,NA,NA,NA,NA,NA,NA,306.2518,"[""down""]",309.1321,1,FALSE,0,3,NA,309.1324,310.3081,310.3083,312.139,312.139,313.1352,0,1,1,11,1,"resources/F8Fdh0.png",2,NA,NA,NA,NA,NA,NA,NA,NA,NA,NA
NA,NA,NA,NA,NA,NA,NA,49,"male","2025-11-21_18h35.39.428","Category_Training_NoLabel","2024.2.4","MacIntel",57.47126437,NA,NA,NA,NA,NA,NA,NA,NA,NA,NA,313.1355,"[""right""]",315.5149,1,FALSE,0,3,NA,315.5151,316.705,316.7052,318.507,318.5071,319.5081,0,2,2,8,1,"resources/F8Fah0.png",2,NA,NA,NA,NA,NA,NA,NA,NA,NA,NA
NA,NA,NA,NA,NA,NA,NA,49,"male","2025-11-21_18h35.39.428","Category_Training_NoLabel","2024.2.4","MacIntel",57.47126437,NA,NA,NA,NA,NA,NA,NA,NA,NA,NA,319.5085,"[""down""]",321.8077,1,TRUE,1,3,NA,321.808,323.0025,323.0028,324.8003,324.8003,325.7952,0,3,3,0,1,"resources/F7Fah0.png",1,NA,NA,NA,NA,NA,NA,NA,NA,NA,NA
NA,NA,NA,NA,NA,NA,NA,49,"male","2025-11-21_18h35.39.428","Category_Training_NoLabel","2024.2.4","MacIntel",57.47126437,NA,NA,NA,NA,NA,NA,NA,NA,NA,NA,325.7955,"[""left""]",328.3054,1,TRUE,1,3,NA,328.3056,329.5044,329.5046,331.2995,331.2995,332.2955,0,4,4,7,1,"resources/F7Mdh0.png",1,NA,NA,NA,NA,NA,NA,NA,NA,NA,NA
NA,NA,NA,NA,NA,NA,NA,49,"male","2025-11-21_18h35.39.428","Category_Training_NoLabel","2024.2.4","MacIntel",57.47126437,NA,NA,NA,NA,NA,NA,NA,NA,NA,NA,332.2958,"[""down""]",334.5547,1,TRUE,1,3,NA,334.5549,335.7544,335.7546,337.5509,337.5509,338.5421,0,5,5,4,1,"resources/F7Mah0.png",1,NA,NA,NA,NA,NA,NA,NA,NA,NA,NA
NA,NA,NA,NA,NA,NA,NA,49,"male","2025-11-21_18h35.39.428","Category_Training_NoLabel","2024.2.4","MacIntel",57.47126437,NA,NA,NA,NA,NA,NA,NA,NA,NA,NA,338.5424,"[""left""]",340.8918,1,FALSE,0,3,NA,340.8921,342.0849,342.0852,343.8844,343.8844,344.8784,0,6,6,9,1,"resources/F8Fbh0.png",2,NA,NA,NA,NA,NA,NA,NA,NA,NA,NA
NA,NA,NA,NA,NA,NA,NA,49,"male","2025-11-21_18h35.39.428","Category_Training_NoLabel","2024.2.4","MacIntel",57.47126437,NA,NA,NA,NA,NA,NA,NA,NA,NA,NA,344.8788,"[""right""]",347.2041,1,TRUE,1,3,NA,347.2043,348.3974,348.3977,350.1918,350.1918,351.2093,0,7,7,3,1,"resources/F7Fdh0.png",1,NA,NA,NA,NA,NA,NA,NA,NA,NA,NA
NA,NA,NA,NA,NA,NA,NA,49,"male","2025-11-21_18h35.39.428","Category_Training_NoLabel","2024.2.4","MacIntel",57.47126437,NA,NA,NA,NA,NA,NA,NA,NA,NA,NA,351.2096,"[""right""]",353.6858,1,FALSE,0,3,NA,353.6861,354.8788,354.879,356.6936,356.6936,357.6929,0,8,8,15,1,"resources/F8Mdh0.png",2,NA,NA,NA,NA,NA,NA,NA,NA,NA,NA
NA,NA,NA,NA,NA,NA,NA,49,"male","2025-11-21_18h35.39.428","Category_Training_NoLabel","2024.2.4","MacIntel",57.47126437,NA,NA,NA,NA,NA,NA,NA,NA,NA,NA,357.6933,"[""up""]",359.9706,1,TRUE,1,3,NA,359.9708,361.1617,361.1618,362.9789,362.979,363.9743,0,9,9,5,1,"resources/F7Mbh0.png",1,NA,NA,NA,NA,NA,NA,NA,NA,NA,NA
NA,NA,NA,NA,NA,NA,NA,49,"male","2025-11-21_18h35.39.428","Category_Training_NoLabel","2024.2.4","MacIntel",57.47126437,NA,NA,NA,NA,NA,NA,NA,NA,NA,NA,363.9746,"[""up""]",366.1892,0,TRUE,0,3,NA,366.1895,367.3821,367.3823,369.1797,369.1798,370.1971,0,10,10,14,1,"resources/F8Mch0.png",2,NA,NA,NA,NA,NA,NA,NA,NA,NA,NA
NA,NA,NA,NA,NA,NA,NA,49,"male","2025-11-21_18h35.39.428","Category_Training_NoLabel","2024.2.4","MacIntel",57.47126437,NA,NA,NA,NA,NA,NA,NA,NA,NA,NA,370.1974,"[""up""]",372.3691,1,TRUE,1,3,NA,372.3694,373.5596,373.5597,375.3589,375.3589,376.3752,0,11,11,6,1,"resources/F7Mch0.png",1,NA,NA,NA,NA,NA,NA,NA,NA,NA,NA
NA,NA,NA,NA,NA,NA,NA,49,"male","2025-11-21_18h35.39.428","Category_Training_NoLabel","2024.2.4","MacIntel",57.47126437,NA,NA,NA,NA,NA,NA,NA,NA,NA,NA,376.3755,"[""right""]",379.3041,0,FALSE,1,3,NA,379.3044,380.4953,380.4955,382.3013,382.3014,383.3074,0,12,12,2,1,"resources/F7Fch0.png",1,NA,NA,NA,NA,NA,NA,NA,NA,NA,NA
NA,NA,NA,NA,NA,NA,NA,49,"male","2025-11-21_18h35.39.428","Category_Training_NoLabel","2024.2.4","MacIntel",57.47126437,NA,NA,NA,NA,NA,NA,NA,NA,NA,NA,383.3077,"[""right""]",385.4723,0,FALSE,1,3,NA,385.4725,386.6682,386.6684,388.4644,388.4644,389.4623,0,13,13,1,1,"resources/F7Fbh0.png",1,NA,NA,NA,NA,NA,NA,NA,NA,NA,NA
NA,NA,NA,NA,NA,NA,NA,49,"male","2025-11-21_18h35.39.428","Category_Training_NoLabel","2024.2.4","MacIntel",57.47126437,NA,NA,NA,NA,NA,NA,NA,NA,NA,NA,389.4627,"[""up""]",391.6459,0,TRUE,0,3,NA,391.6461,392.8349,392.8351,394.6524,394.6524,395.6474,0,14,14,13,1,"resources/F8Mbh0.png",2,NA,NA,NA,NA,NA,NA,NA,NA,NA,NA
NA,NA,NA,NA,NA,NA,NA,49,"male","2025-11-21_18h35.39.428","Category_Training_NoLabel","2024.2.4","MacIntel",57.47126437,NA,NA,NA,NA,NA,NA,NA,NA,NA,NA,395.6478,"[""left""]",398.0896,1,FALSE,0,3,NA,398.0899,399.2818,399.282,401.0779,401.0779,402.0698,0,15,15,10,1,"resources/F8Fch0.png",2,NA,NA,NA,NA,NA,NA,NA,NA,NA,NA
NA,NA,NA,NA,NA,NA,NA,49,"male","2025-11-21_18h35.39.428","Category_Training_NoLabel","2024.2.4","MacIntel",57.47126437,NA,NA,NA,NA,NA,NA,NA,NA,NA,NA,404.474,"[""left""]",406.8335,1,FALSE,0,4,NA,406.8337,408.0279,408.0281,409.8283,409.8283,410.8259,0,0,0,9,1,"resources/F8Fbh0.png",2,402.0703,404.4705,"space",2.3675,NA,NA,NA,NA,NA,NA
NA,NA,NA,NA,NA,NA,NA,49,"male","2025-11-21_18h35.39.428","Category_Training_NoLabel","2024.2.4","MacIntel",57.47126437,NA,NA,NA,NA,NA,NA,NA,NA,NA,NA,410.8261,"[""right""]",412.9887,1,TRUE,1,4,NA,412.989,414.1807,414.1809,415.9777,415.9777,416.9979,0,1,1,5,1,"resources/F7Mbh0.png",1,NA,NA,NA,NA,NA,NA,NA,NA,NA,NA
NA,NA,NA,NA,NA,NA,NA,49,"male","2025-11-21_18h35.39.428","Category_Training_NoLabel","2024.2.4","MacIntel",57.47126437,NA,NA,NA,NA,NA,NA,NA,NA,NA,NA,416.9984,"[""left""]",419.0388,1,FALSE,0,4,NA,419.039,420.2364,420.2365,422.0287,422.0287,423.0477,0,2,2,11,1,"resources/F8Fdh0.png",2,NA,NA,NA,NA,NA,NA,NA,NA,NA,NA
NA,NA,NA,NA,NA,NA,NA,49,"male","2025-11-21_18h35.39.428","Category_Training_NoLabel","2024.2.4","MacIntel",57.47126437,NA,NA,NA,NA,NA,NA,NA,NA,NA,NA,423.048,"[""left""]",425.3754,1,FALSE,0,4,NA,425.3756,426.5551,426.5554,428.3632,428.3632,429.3814,0,3,3,15,1,"resources/F8Mdh0.png",2,NA,NA,NA,NA,NA,NA,NA,NA,NA,NA
NA,NA,NA,NA,NA,NA,NA,49,"male","2025-11-21_18h35.39.428","Category_Training_NoLabel","2024.2.4","MacIntel",57.47126437,NA,NA,NA,NA,NA,NA,NA,NA,NA,NA,429.3818,"[""down""]",431.7429,1,TRUE,1,4,NA,431.7433,432.936,432.9363,434.731,434.731,435.7519,0,4,4,3,1,"resources/F7Fdh0.png",1,NA,NA,NA,NA,NA,NA,NA,NA,NA,NA
NA,NA,NA,NA,NA,NA,NA,49,"male","2025-11-21_18h35.39.428","Category_Training_NoLabel","2024.2.4","MacIntel",57.47126437,NA,NA,NA,NA,NA,NA,NA,NA,NA,NA,435.7524,"[""down""]",438.596,1,TRUE,1,4,NA,438.5963,439.7911,439.7912,441.5913,441.5913,442.5852,0,5,5,2,1,"resources/F7Fch0.png",1,NA,NA,NA,NA,NA,NA,NA,NA,NA,NA
NA,NA,NA,NA,NA,NA,NA,49,"male","2025-11-21_18h35.39.428","Category_Training_NoLabel","2024.2.4","MacIntel",57.47126437,NA,NA,NA,NA,NA,NA,NA,NA,NA,NA,442.5855,"[""up""]",444.9546,1,FALSE,0,4,NA,444.9549,446.1486,446.1489,447.947,447.947,448.9516,0,6,6,14,1,"resources/F8Mch0.png",2,NA,NA,NA,NA,NA,NA,NA,NA,NA,NA
NA,NA,NA,NA,NA,NA,NA,49,"male","2025-11-21_18h35.39.428","Category_Training_NoLabel","2024.2.4","MacIntel",57.47126437,NA,NA,NA,NA,NA,NA,NA,NA,NA,NA,448.952,"[""left""]",451.1415,1,TRUE,1,4,NA,451.1417,452.3284,452.3286,454.149,454.149,455.1244,0,7,7,7,1,"resources/F7Mdh0.png",1,NA,NA,NA,NA,NA,NA,NA,NA,NA,NA
NA,NA,NA,NA,NA,NA,NA,49,"male","2025-11-21_18h35.39.428","Category_Training_NoLabel","2024.2.4","MacIntel",57.47126437,NA,NA,NA,NA,NA,NA,NA,NA,NA,NA,455.1246,"[""left""]",457.6425,1,TRUE,1,4,NA,457.6427,458.8348,458.835,460.6301,460.6301,461.6442,0,8,8,1,1,"resources/F7Fbh0.png",1,NA,NA,NA,NA,NA,NA,NA,NA,NA,NA
NA,NA,NA,NA,NA,NA,NA,49,"male","2025-11-21_18h35.39.428","Category_Training_NoLabel","2024.2.4","MacIntel",57.47126437,NA,NA,NA,NA,NA,NA,NA,NA,NA,NA,461.6446,"[""right""]",465.0876,0,TRUE,0,4,NA,465.0879,466.2861,466.2863,468.082,468.082,469.0839,0,9,9,13,1,"resources/F8Mbh0.png",2,NA,NA,NA,NA,NA,NA,NA,NA,NA,NA
NA,NA,NA,NA,NA,NA,NA,49,"male","2025-11-21_18h35.39.428","Category_Training_NoLabel","2024.2.4","MacIntel",57.47126437,NA,NA,NA,NA,NA,NA,NA,NA,NA,NA,469.0843,"[""right""]",471.5437,1,TRUE,1,4,NA,471.544,472.7332,472.7333,474.5326,474.5326,475.5521,0,10,10,6,1,"resources/F7Mch0.png",1,NA,NA,NA,NA,NA,NA,NA,NA,NA,NA
NA,NA,NA,NA,NA,NA,NA,49,"male","2025-11-21_18h35.39.428","Category_Training_NoLabel","2024.2.4","MacIntel",57.47126437,NA,NA,NA,NA,NA,NA,NA,NA,NA,NA,475.5525,"[""down""]",477.9471,1,TRUE,1,4,NA,477.9474,479.1458,479.146,480.9438,480.9438,481.9353,0,11,11,4,1,"resources/F7Mah0.png",1,NA,NA,NA,NA,NA,NA,NA,NA,NA,NA
NA,NA,NA,NA,NA,NA,NA,49,"male","2025-11-21_18h35.39.428","Category_Training_NoLabel","2024.2.4","MacIntel",57.47126437,NA,NA,NA,NA,NA,NA,NA,NA,NA,NA,481.9356,"[""down""]",484.277,1,FALSE,0,4,NA,484.2773,485.4735,485.4738,487.2704,487.2704,488.2629,0,12,12,10,1,"resources/F8Fch0.png",2,NA,NA,NA,NA,NA,NA,NA,NA,NA,NA
NA,NA,NA,NA,NA,NA,NA,49,"male","2025-11-21_18h35.39.428","Category_Training_NoLabel","2024.2.4","MacIntel",57.47126437,NA,NA,NA,NA,NA,NA,NA,NA,NA,NA,488.2632,"[""up""]",490.7381,1,FALSE,0,4,NA,490.7384,491.9463,491.9465,493.7472,493.7472,494.7437,0,13,13,8,1,"resources/F8Fah0.png",2,NA,NA,NA,NA,NA,NA,NA,NA,NA,NA
NA,NA,NA,NA,NA,NA,NA,49,"male","2025-11-21_18h35.39.428","Category_Training_NoLabel","2024.2.4","MacIntel",57.47126437,NA,NA,NA,NA,NA,NA,NA,NA,NA,NA,494.7441,"[""down""]",496.9153,1,TRUE,1,4,NA,496.9155,498.1047,498.105,499.9231,499.9231,500.9228,0,14,14,0,1,"resources/F7Fah0.png",1,NA,NA,NA,NA,NA,NA,NA,NA,NA,NA
NA,NA,NA,NA,NA,NA,NA,49,"male","2025-11-21_18h35.39.428","Category_Training_NoLabel","2024.2.4","MacIntel",57.47126437,NA,NA,NA,NA,NA,NA,NA,NA,NA,NA,500.9233,"[""left""]",503.1108,1,FALSE,0,4,NA,503.1111,504.3037,504.304,506.1036,506.1036,507.1007,0,15,15,12,1,"resources/F8Mah0.png",2,NA,NA,NA,NA,NA,NA,NA,NA,NA,NA
NA,NA,NA,NA,NA,NA,NA,49,"male","2025-11-21_18h35.39.428","Category_Training_NoLabel","2024.2.4","MacIntel",57.47126437,NA,NA,NA,NA,NA,NA,NA,NA,NA,NA,508.7901,"[""left""]",510.9993,1,FALSE,0,5,NA,510.9996,512.1917,512.1918,513.9819,513.9819,514.9996,0,0,0,8,1,"resources/F8Fah0.png",2,507.1012,508.7867,"space",1.6545,NA,NA,NA,NA,NA,NA
NA,NA,NA,NA,NA,NA,NA,49,"male","2025-11-21_18h35.39.428","Category_Training_NoLabel","2024.2.4","MacIntel",57.47126437,NA,NA,NA,NA,NA,NA,NA,NA,NA,NA,515.0001,"[""down""]",517.1066,0,TRUE,0,5,NA,517.107,518.2955,518.2957,520.1082,520.1082,521.0834,0,1,1,13,1,"resources/F8Mbh0.png",2,NA,NA,NA,NA,NA,NA,NA,NA,NA,NA
NA,NA,NA,NA,NA,NA,NA,49,"male","2025-11-21_18h35.39.428","Category_Training_NoLabel","2024.2.4","MacIntel",57.47126437,NA,NA,NA,NA,NA,NA,NA,NA,NA,NA,521.0838,"[""left""]",523.3129,1,TRUE,1,5,NA,523.3131,524.5049,524.5051,526.2981,526.2981,527.3156,0,2,2,2,1,"resources/F7Fch0.png",1,NA,NA,NA,NA,NA,NA,NA,NA,NA,NA
NA,NA,NA,NA,NA,NA,NA,49,"male","2025-11-21_18h35.39.428","Category_Training_NoLabel","2024.2.4","MacIntel",57.47126437,NA,NA,NA,NA,NA,NA,NA,NA,NA,NA,527.316,"[""left""]",529.4879,1,TRUE,1,5,NA,529.4881,530.6807,530.6808,532.4917,532.4917,533.4659,0,3,3,6,1,"resources/F7Mch0.png",1,NA,NA,NA,NA,NA,NA,NA,NA,NA,NA
NA,NA,NA,NA,NA,NA,NA,49,"male","2025-11-21_18h35.39.428","Category_Training_NoLabel","2024.2.4","MacIntel",57.47126437,NA,NA,NA,NA,NA,NA,NA,NA,NA,NA,533.4663,"[""up""]",535.6143,0,FALSE,1,5,NA,535.6145,536.808,536.8082,538.6051,538.6051,539.6054,0,4,4,1,1,"resources/F7Fbh0.png",1,NA,NA,NA,NA,NA,NA,NA,NA,NA,NA
NA,NA,NA,NA,NA,NA,NA,49,"male","2025-11-21_18h35.39.428","Category_Training_NoLabel","2024.2.4","MacIntel",57.47126437,NA,NA,NA,NA,NA,NA,NA,NA,NA,NA,539.6057,"[""down""]",542.7069,0,TRUE,0,5,NA,542.7072,543.8975,543.8977,545.7136,545.7136,546.7139,0,5,5,14,1,"resources/F8Mch0.png",2,NA,NA,NA,NA,NA,NA,NA,NA,NA,NA
NA,NA,NA,NA,NA,NA,NA,49,"male","2025-11-21_18h35.39.428","Category_Training_NoLabel","2024.2.4","MacIntel",57.47126437,NA,NA,NA,NA,NA,NA,NA,NA,NA,NA,546.7142,"[""up""]",549.7938,1,FALSE,0,5,NA,549.794,550.97,550.9702,552.7988,552.7988,553.7719,0,6,6,10,1,"resources/F8Fch0.png",2,NA,NA,NA,NA,NA,NA,NA,NA,NA,NA
NA,NA,NA,NA,NA,NA,NA,49,"male","2025-11-21_18h35.39.428","Category_Training_NoLabel","2024.2.4","MacIntel",57.47126437,NA,NA,NA,NA,NA,NA,NA,NA,NA,NA,553.7724,"[""right""]",557.525,1,FALSE,0,5,NA,557.5253,558.7241,558.7243,560.5049,560.5049,561.5043,0,7,7,11,1,"resources/F8Fdh0.png",2,NA,NA,NA,NA,NA,NA,NA,NA,NA,NA
NA,NA,NA,NA,NA,NA,NA,49,"male","2025-11-21_18h35.39.428","Category_Training_NoLabel","2024.2.4","MacIntel",57.47126437,NA,NA,NA,NA,NA,NA,NA,NA,NA,NA,561.5047,"[""down""]",563.8246,1,TRUE,1,5,NA,563.8249,565.0221,565.0223,566.8191,566.8191,567.8176,0,8,8,7,1,"resources/F7Mdh0.png",1,NA,NA,NA,NA,NA,NA,NA,NA,NA,NA
NA,NA,NA,NA,NA,NA,NA,49,"male","2025-11-21_18h35.39.428","Category_Training_NoLabel","2024.2.4","MacIntel",57.47126437,NA,NA,NA,NA,NA,NA,NA,NA,NA,NA,567.818,"[""right""]",570.0616,1,FALSE,0,5,NA,570.0619,571.2565,571.2568,573.053,573.053,574.0548,0,9,9,12,1,"resources/F8Mah0.png",2,NA,NA,NA,NA,NA,NA,NA,NA,NA,NA
NA,NA,NA,NA,NA,NA,NA,49,"male","2025-11-21_18h35.39.428","Category_Training_NoLabel","2024.2.4","MacIntel",57.47126437,NA,NA,NA,NA,NA,NA,NA,NA,NA,NA,574.0551,"[""up""]",576.3481,1,TRUE,1,5,NA,576.3484,577.5455,577.5458,579.3434,579.3434,580.3425,0,10,10,5,1,"resources/F7Mbh0.png",1,NA,NA,NA,NA,NA,NA,NA,NA,NA,NA
NA,NA,NA,NA,NA,NA,NA,49,"male","2025-11-21_18h35.39.428","Category_Training_NoLabel","2024.2.4","MacIntel",57.47126437,NA,NA,NA,NA,NA,NA,NA,NA,NA,NA,580.3428,"[""down""]",582.6407,1,FALSE,0,5,NA,582.6409,583.8365,583.8367,585.6477,585.6477,586.6226,0,11,11,15,1,"resources/F8Mdh0.png",2,NA,NA,NA,NA,NA,NA,NA,NA,NA,NA
NA,NA,NA,NA,NA,NA,NA,49,"male","2025-11-21_18h35.39.428","Category_Training_NoLabel","2024.2.4","MacIntel",57.47126437,NA,NA,NA,NA,NA,NA,NA,NA,NA,NA,586.623,"[""up""]",589.1029,1,FALSE,0,5,NA,589.1032,590.2946,590.2948,592.0903,592.0903,593.1083,0,12,12,9,1,"resources/F8Fbh0.png",2,NA,NA,NA,NA,NA,NA,NA,NA,NA,NA
NA,NA,NA,NA,NA,NA,NA,49,"male","2025-11-21_18h35.39.428","Category_Training_NoLabel","2024.2.4","MacIntel",57.47126437,NA,NA,NA,NA,NA,NA,NA,NA,NA,NA,593.1086,"[""left""]",595.2777,1,TRUE,1,5,NA,595.278,596.4723,596.4725,598.2652,598.2652,599.2593,0,13,13,0,1,"resources/F7Fah0.png",1,NA,NA,NA,NA,NA,NA,NA,NA,NA,NA
NA,NA,NA,NA,NA,NA,NA,49,"male","2025-11-21_18h35.39.428","Category_Training_NoLabel","2024.2.4","MacIntel",57.47126437,NA,NA,NA,NA,NA,NA,NA,NA,NA,NA,599.2596,"[""left""]",601.6808,1,TRUE,1,5,NA,601.6812,602.8742,602.8743,604.6716,604.6717,605.6718,0,14,14,4,1,"resources/F7Mah0.png",1,NA,NA,NA,NA,NA,NA,NA,NA,NA,NA
NA,NA,NA,NA,NA,NA,NA,49,"male","2025-11-21_18h35.39.428","Category_Training_NoLabel","2024.2.4","MacIntel",57.47126437,NA,NA,NA,NA,NA,NA,NA,NA,NA,NA,605.6722,"[""left""]",608.2991,0,FALSE,1,5,NA,608.2994,609.5069,609.5071,611.3058,611.3058,612.3047,0,15,15,3,1,"resources/F7Fdh0.png",1,NA,NA,NA,NA,NA,NA,NA,NA,NA,NA
NA,NA,NA,NA,NA,NA,NA,49,"male","2025-11-21_18h35.39.428","Category_Training_NoLabel","2024.2.4","MacIntel",57.47126437,NA,NA,NA,NA,NA,NA,NA,NA,NA,NA,614.2521,"[""left""]",616.4137,1,FALSE,0,6,NA,616.414,617.6069,617.6071,619.4016,619.4016,620.4211,0,0,0,8,1,"resources/F8Fah0.png",2,612.3054,614.2487,"space",1.9102,NA,NA,NA,NA,NA,NA
NA,NA,NA,NA,NA,NA,NA,49,"male","2025-11-21_18h35.39.428","Category_Training_NoLabel","2024.2.4","MacIntel",57.47126437,NA,NA,NA,NA,NA,NA,NA,NA,NA,NA,620.4215,"[""down""]",622.8771,1,FALSE,0,6,NA,622.8775,624.0701,624.0704,625.8663,625.8663,626.8606,0,1,1,12,1,"resources/F8Mah0.png",2,NA,NA,NA,NA,NA,NA,NA,NA,NA,NA
NA,NA,NA,NA,NA,NA,NA,49,"male","2025-11-21_18h35.39.428","Category_Training_NoLabel","2024.2.4","MacIntel",57.47126437,NA,NA,NA,NA,NA,NA,NA,NA,NA,NA,626.8609,"[""down""]",629.9656,1,TRUE,1,6,NA,629.9659,631.1544,631.1545,632.9719,632.9719,633.9712,0,2,2,1,1,"resources/F7Fbh0.png",1,NA,NA,NA,NA,NA,NA,NA,NA,NA,NA
NA,NA,NA,NA,NA,NA,NA,49,"male","2025-11-21_18h35.39.428","Category_Training_NoLabel","2024.2.4","MacIntel",57.47126437,NA,NA,NA,NA,NA,NA,NA,NA,NA,NA,633.9716,"[""down""]",636.0742,0,TRUE,0,6,NA,636.0745,637.2633,637.2635,639.0807,639.0807,640.075,0,3,3,15,1,"resources/F8Mdh0.png",2,NA,NA,NA,NA,NA,NA,NA,NA,NA,NA
NA,NA,NA,NA,NA,NA,NA,49,"male","2025-11-21_18h35.39.428","Category_Training_NoLabel","2024.2.4","MacIntel",57.47126437,NA,NA,NA,NA,NA,NA,NA,NA,NA,NA,640.0753,"[""right""]",642.2467,0,TRUE,0,6,NA,642.247,643.4445,643.4448,645.2505,645.2506,646.2419,0,4,4,13,1,"resources/F8Mbh0.png",2,NA,NA,NA,NA,NA,NA,NA,NA,NA,NA
NA,NA,NA,NA,NA,NA,NA,49,"male","2025-11-21_18h35.39.428","Category_Training_NoLabel","2024.2.4","MacIntel",57.47126437,NA,NA,NA,NA,NA,NA,NA,NA,NA,NA,646.2422,"[""right""]",649.4035,1,FALSE,0,6,NA,649.4038,650.5995,650.5997,652.3967,652.3967,653.3961,0,5,5,9,1,"resources/F8Fbh0.png",2,NA,NA,NA,NA,NA,NA,NA,NA,NA,NA
NA,NA,NA,NA,NA,NA,NA,49,"male","2025-11-21_18h35.39.428","Category_Training_NoLabel","2024.2.4","MacIntel",57.47126437,NA,NA,NA,NA,NA,NA,NA,NA,NA,NA,653.3964,"[""down""]",655.6019,1,TRUE,1,6,NA,655.6021,656.795,656.7951,658.5907,658.5907,659.6081,0,6,6,5,1,"resources/F7Mbh0.png",1,NA,NA,NA,NA,NA,NA,NA,NA,NA,NA
NA,NA,NA,NA,NA,NA,NA,49,"male","2025-11-21_18h35.39.428","Category_Training_NoLabel","2024.2.4","MacIntel",57.47126437,NA,NA,NA,NA,NA,NA,NA,NA,NA,NA,659.6085,"[""left""]",661.7475,1,TRUE,1,6,NA,661.7478,662.9474,662.9477,664.7444,664.7444,665.7382,0,7,7,7,1,"resources/F7Mdh0.png",1,NA,NA,NA,NA,NA,NA,NA,NA,NA,NA
NA,NA,NA,NA,NA,NA,NA,49,"male","2025-11-21_18h35.39.428","Category_Training_NoLabel","2024.2.4","MacIntel",57.47126437,NA,NA,NA,NA,NA,NA,NA,NA,NA,NA,665.7387,"[""left""]",668.0563,1,FALSE,0,6,NA,668.0567,669.2507,669.251,671.0494,671.0494,672.0464,0,8,8,10,1,"resources/F8Fch0.png",2,NA,NA,NA,NA,NA,NA,NA,NA,NA,NA
NA,NA,NA,NA,NA,NA,NA,49,"male","2025-11-21_18h35.39.428","Category_Training_NoLabel","2024.2.4","MacIntel",57.47126437,NA,NA,NA,NA,NA,NA,NA,NA,NA,NA,672.0467,"[""up""]",674.2626,1,TRUE,1,6,NA,674.263,675.4642,675.4644,677.2594,677.2594,678.2506,0,9,9,4,1,"resources/F7Mah0.png",1,NA,NA,NA,NA,NA,NA,NA,NA,NA,NA
NA,NA,NA,NA,NA,NA,NA,49,"male","2025-11-21_18h35.39.428","Category_Training_NoLabel","2024.2.4","MacIntel",57.47126437,NA,NA,NA,NA,NA,NA,NA,NA,NA,NA,678.2509,"[""down""]",680.7472,1,TRUE,1,6,NA,680.7476,681.9514,681.9516,683.7494,683.7494,684.7473,0,10,10,6,1,"resources/F7Mch0.png",1,NA,NA,NA,NA,NA,NA,NA,NA,NA,NA
NA,NA,NA,NA,NA,NA,NA,49,"male","2025-11-21_18h35.39.428","Category_Training_NoLabel","2024.2.4","MacIntel",57.47126437,NA,NA,NA,NA,NA,NA,NA,NA,NA,NA,684.7477,"[""right""]",687.2915,0,FALSE,1,6,NA,687.2918,688.4809,688.481,690.2999,690.2999,691.2994,0,11,11,2,1,"resources/F7Fch0.png",1,NA,NA,NA,NA,NA,NA,NA,NA,NA,NA
NA,NA,NA,NA,NA,NA,NA,49,"male","2025-11-21_18h35.39.428","Category_Training_NoLabel","2024.2.4","MacIntel",57.47126437,NA,NA,NA,NA,NA,NA,NA,NA,NA,NA,691.2997,"[""left""]",693.4083,1,TRUE,1,6,NA,693.4087,694.6072,694.6074,696.4056,696.4056,697.4053,0,12,12,3,1,"resources/F7Fdh0.png",1,NA,NA,NA,NA,NA,NA,NA,NA,NA,NA
NA,NA,NA,NA,NA,NA,NA,49,"male","2025-11-21_18h35.39.428","Category_Training_NoLabel","2024.2.4","MacIntel",57.47126437,NA,NA,NA,NA,NA,NA,NA,NA,NA,NA,697.4056,"[""left""]",699.8787,1,TRUE,1,6,NA,699.8789,701.0566,701.0568,702.8793,702.8793,703.8559,0,13,13,0,1,"resources/F7Fah0.png",1,NA,NA,NA,NA,NA,NA,NA,NA,NA,NA
NA,NA,NA,NA,NA,NA,NA,49,"male","2025-11-21_18h35.39.428","Category_Training_NoLabel","2024.2.4","MacIntel",57.47126437,NA,NA,NA,NA,NA,NA,NA,NA,NA,NA,703.8562,"[""down""]",706.3423,0,TRUE,0,6,NA,706.3426,707.5381,707.5382,709.3511,709.3512,710.3468,0,14,14,14,1,"resources/F8Mch0.png",2,NA,NA,NA,NA,NA,NA,NA,NA,NA,NA
NA,NA,NA,NA,NA,NA,NA,49,"male","2025-11-21_18h35.39.428","Category_Training_NoLabel","2024.2.4","MacIntel",57.47126437,NA,NA,NA,NA,NA,NA,NA,NA,NA,NA,710.3472,"[""up""]",713.0566,1,FALSE,0,6,NA,713.0568,714.2521,714.2523,716.0525,716.0525,717.0462,0,15,15,11,1,"resources/F8Fdh0.png",2,NA,NA,NA,NA,NA,NA,NA,NA,NA,NA
NA,NA,NA,NA,NA,NA,NA,49,"male","2025-11-21_18h35.39.428","Category_Training_NoLabel","2024.2.4","MacIntel",57.47126437,NA,NA,NA,NA,NA,NA,NA,NA,NA,NA,718.4995,"[""left""]",720.9655,1,TRUE,1,7,NA,720.9658,722.1584,722.1586,723.9549,723.9549,724.9753,0,0,0,6,1,"resources/F7Mch0.png",1,717.0468,718.496,"space",1.4149,NA,NA,NA,NA,NA,NA
NA,NA,NA,NA,NA,NA,NA,49,"male","2025-11-21_18h35.39.428","Category_Training_NoLabel","2024.2.4","MacIntel",57.47126437,NA,NA,NA,NA,NA,NA,NA,NA,NA,NA,724.9758,"[""left""]",726.893,1,TRUE,1,7,NA,726.8933,728.0863,728.0865,729.8829,729.8829,730.8871,0,1,1,5,1,"resources/F7Mbh0.png",1,NA,NA,NA,NA,NA,NA,NA,NA,NA,NA
NA,NA,NA,NA,NA,NA,NA,49,"male","2025-11-21_18h35.39.428","Category_Training_NoLabel","2024.2.4","MacIntel",57.47126437,NA,NA,NA,NA,NA,NA,NA,NA,NA,NA,730.8874,"[""left""]",733.6285,1,FALSE,0,7,NA,733.6286,734.8274,734.8276,736.6057,736.6058,737.6271,0,2,2,15,1,"resources/F8Mdh0.png",2,NA,NA,NA,NA,NA,NA,NA,NA,NA,NA
NA,NA,NA,NA,NA,NA,NA,49,"male","2025-11-21_18h35.39.428","Category_Training_NoLabel","2024.2.4","MacIntel",57.47126437,NA,NA,NA,NA,NA,NA,NA,NA,NA,NA,737.6275,"[""left""]",739.9502,0,FALSE,1,7,NA,739.9506,741.1451,741.1453,742.9458,742.9458,743.9252,0,3,3,7,1,"resources/F7Mdh0.png",1,NA,NA,NA,NA,NA,NA,NA,NA,NA,NA
NA,NA,NA,NA,NA,NA,NA,49,"male","2025-11-21_18h35.39.428","Category_Training_NoLabel","2024.2.4","MacIntel",57.47126437,NA,NA,NA,NA,NA,NA,NA,NA,NA,NA,743.9255,"[""left""]",745.9219,1,FALSE,0,7,NA,745.9222,747.1175,747.1177,748.9093,748.9093,749.9279,0,4,4,12,1,"resources/F8Mah0.png",2,NA,NA,NA,NA,NA,NA,NA,NA,NA,NA
NA,NA,NA,NA,NA,NA,NA,49,"male","2025-11-21_18h35.39.428","Category_Training_NoLabel","2024.2.4","MacIntel",57.47126437,NA,NA,NA,NA,NA,NA,NA,NA,NA,NA,749.9282,"[""up""]",753.1737,1,TRUE,1,7,NA,753.174,754.3678,754.3679,756.1627,756.1627,757.1591,0,5,5,1,1,"resources/F7Fbh0.png",1,NA,NA,NA,NA,NA,NA,NA,NA,NA,NA
NA,NA,NA,NA,NA,NA,NA,49,"male","2025-11-21_18h35.39.428","Category_Training_NoLabel","2024.2.4","MacIntel",57.47126437,NA,NA,NA,NA,NA,NA,NA,NA,NA,NA,757.1595,"[""up""]",759.3771,1,FALSE,0,7,NA,759.3774,760.5678,760.5681,762.3856,762.3856,763.3615,0,6,6,8,1,"resources/F8Fah0.png",2,NA,NA,NA,NA,NA,NA,NA,NA,NA,NA
NA,NA,NA,NA,NA,NA,NA,49,"male","2025-11-21_18h35.39.428","Category_Training_NoLabel","2024.2.4","MacIntel",57.47126437,NA,NA,NA,NA,NA,NA,NA,NA,NA,NA,763.3619,"[""left""]",765.5337,1,TRUE,1,7,NA,765.534,766.7266,766.7268,768.5375,768.5376,769.513,0,7,7,2,1,"resources/F7Fch0.png",1,NA,NA,NA,NA,NA,NA,NA,NA,NA,NA
NA,NA,NA,NA,NA,NA,NA,49,"male","2025-11-21_18h35.39.428","Category_Training_NoLabel","2024.2.4","MacIntel",57.47126437,NA,NA,NA,NA,NA,NA,NA,NA,NA,NA,769.5134,"[""up""]",771.6762,1,TRUE,1,7,NA,771.6763,772.8671,772.8673,774.6753,774.6754,775.6725,0,8,8,4,1,"resources/F7Mah0.png",1,NA,NA,NA,NA,NA,NA,NA,NA,NA,NA
NA,NA,NA,NA,NA,NA,NA,49,"male","2025-11-21_18h35.39.428","Category_Training_NoLabel","2024.2.4","MacIntel",57.47126437,NA,NA,NA,NA,NA,NA,NA,NA,NA,NA,775.6729,"[""down""]",778.7805,1,FALSE,0,7,NA,778.7807,779.9761,779.9762,781.764,781.764,782.7828,0,9,9,13,1,"resources/F8Mbh0.png",2,NA,NA,NA,NA,NA,NA,NA,NA,NA,NA
NA,NA,NA,NA,NA,NA,NA,49,"male","2025-11-21_18h35.39.428","Category_Training_NoLabel","2024.2.4","MacIntel",57.47126437,NA,NA,NA,NA,NA,NA,NA,NA,NA,NA,782.7831,"[""left""]",784.8723,1,FALSE,0,7,NA,784.8725,786.0679,786.0681,787.8481,787.8481,788.8483,0,10,10,9,1,"resources/F8Fbh0.png",2,NA,NA,NA,NA,NA,NA,NA,NA,NA,NA
NA,NA,NA,NA,NA,NA,NA,49,"male","2025-11-21_18h35.39.428","Category_Training_NoLabel","2024.2.4","MacIntel",57.47126437,NA,NA,NA,NA,NA,NA,NA,NA,NA,NA,788.8487,"[""right""]",791.1251,0,TRUE,0,7,NA,791.1254,792.3006,792.3007,794.1205,794.1205,795.1179,0,11,11,10,1,"resources/F8Fch0.png",2,NA,NA,NA,NA,NA,NA,NA,NA,NA,NA
NA,NA,NA,NA,NA,NA,NA,49,"male","2025-11-21_18h35.39.428","Category_Training_NoLabel","2024.2.4","MacIntel",57.47126437,NA,NA,NA,NA,NA,NA,NA,NA,NA,NA,795.1181,"[""up""]",797.7229,1,TRUE,1,7,NA,797.7232,798.8992,798.8993,800.719,800.719,801.7012,0,12,12,0,1,"resources/F7Fah0.png",1,NA,NA,NA,NA,NA,NA,NA,NA,NA,NA
NA,NA,NA,NA,NA,NA,NA,49,"male","2025-11-21_18h35.39.428","Category_Training_NoLabel","2024.2.4","MacIntel",57.47126437,NA,NA,NA,NA,NA,NA,NA,NA,NA,NA,801.7016,"[""right""]",803.7875,1,FALSE,0,7,NA,803.7878,804.9919,804.9921,806.7648,806.7648,807.7824,0,13,13,11,1,"resources/F8Fdh0.png",2,NA,NA,NA,NA,NA,NA,NA,NA,NA,NA
NA,NA,NA,NA,NA,NA,NA,49,"male","2025-11-21_18h35.39.428","Category_Training_NoLabel","2024.2.4","MacIntel",57.47126437,NA,NA,NA,NA,NA,NA,NA,NA,NA,NA,807.7829,"[""left""]",810.0198,0,FALSE,1,7,NA,810.0201,811.217,811.2172,813.0121,813.0121,814.0138,0,14,14,3,1,"resources/F7Fdh0.png",1,NA,NA,NA,NA,NA,NA,NA,NA,NA,NA
NA,NA,NA,NA,NA,NA,NA,49,"male","2025-11-21_18h35.39.428","Category_Training_NoLabel","2024.2.4","MacIntel",57.47126437,NA,NA,NA,NA,NA,NA,NA,NA,NA,NA,814.0141,"[""up""]",816.2306,0,TRUE,0,7,NA,816.2308,817.4241,817.4243,819.2268,819.2268,820.2326,0,15,15,14,1,"resources/F8Mch0.png",2,NA,NA,NA,NA,NA,NA,NA,NA,NA,NA
NA,NA,NA,NA,NA,NA,NA,49,"male","2025-11-21_18h35.39.428","Category_Training_NoLabel","2024.2.4","MacIntel",57.47126437,NA,NA,NA,NA,NA,NA,NA,NA,NA,NA,821.8691,"[""left""]",825.4457,1,TRUE,1,8,NA,825.4461,826.6214,826.6216,828.4215,828.4216,829.4387,0,0,0,7,1,"resources/F7Mdh0.png",1,820.2331,821.8632,"space",1.5989,NA,NA,NA,NA,NA,NA
NA,NA,NA,NA,NA,NA,NA,49,"male","2025-11-21_18h35.39.428","Category_Training_NoLabel","2024.2.4","MacIntel",57.47126437,NA,NA,NA,NA,NA,NA,NA,NA,NA,NA,829.439,"[""right""]",831.5893,1,FALSE,0,8,NA,831.5896,832.7812,832.7814,834.5967,834.5967,835.5727,0,1,1,12,1,"resources/F8Mah0.png",2,NA,NA,NA,NA,NA,NA,NA,NA,NA,NA
NA,NA,NA,NA,NA,NA,NA,49,"male","2025-11-21_18h35.39.428","Category_Training_NoLabel","2024.2.4","MacIntel",57.47126437,NA,NA,NA,NA,NA,NA,NA,NA,NA,NA,835.5731,"[""up""]",837.6578,1,TRUE,1,8,NA,837.6581,838.8523,838.8525,840.6465,840.6466,841.6668,0,2,2,2,1,"resources/F7Fch0.png",1,NA,NA,NA,NA,NA,NA,NA,NA,NA,NA
NA,NA,NA,NA,NA,NA,NA,49,"male","2025-11-21_18h35.39.428","Category_Training_NoLabel","2024.2.4","MacIntel",57.47126437,NA,NA,NA,NA,NA,NA,NA,NA,NA,NA,841.6671,"[""right""]",845.2639,0,TRUE,0,8,NA,845.2642,846.4625,846.4627,848.259,848.259,849.255,0,3,3,13,1,"resources/F8Mbh0.png",2,NA,NA,NA,NA,NA,NA,NA,NA,NA,NA
NA,NA,NA,NA,NA,NA,NA,49,"male","2025-11-21_18h35.39.428","Category_Training_NoLabel","2024.2.4","MacIntel",57.47126437,NA,NA,NA,NA,NA,NA,NA,NA,NA,NA,849.2554,"[""down""]",851.5792,1,TRUE,1,8,NA,851.5794,852.7572,852.7574,854.5573,854.5574,855.5573,0,4,4,0,1,"resources/F7Fah0.png",1,NA,NA,NA,NA,NA,NA,NA,NA,NA,NA
NA,NA,NA,NA,NA,NA,NA,49,"male","2025-11-21_18h35.39.428","Category_Training_NoLabel","2024.2.4","MacIntel",57.47126437,NA,NA,NA,NA,NA,NA,NA,NA,NA,NA,855.5576,"[""left""]",857.7764,1,FALSE,0,8,NA,857.7767,858.9748,858.975,860.7756,860.7756,861.7754,0,5,5,9,1,"resources/F8Fbh0.png",2,NA,NA,NA,NA,NA,NA,NA,NA,NA,NA
NA,NA,NA,NA,NA,NA,NA,49,"male","2025-11-21_18h35.39.428","Category_Training_NoLabel","2024.2.4","MacIntel",57.47126437,NA,NA,NA,NA,NA,NA,NA,NA,NA,NA,861.7757,"[""down""]",863.9411,0,TRUE,0,8,NA,863.9414,865.1366,865.1369,866.9358,866.9358,867.9385,0,6,6,14,1,"resources/F8Mch0.png",2,NA,NA,NA,NA,NA,NA,NA,NA,NA,NA
NA,NA,NA,NA,NA,NA,NA,49,"male","2025-11-21_18h35.39.428","Category_Training_NoLabel","2024.2.4","MacIntel",57.47126437,NA,NA,NA,NA,NA,NA,NA,NA,NA,NA,867.9389,"[""right""]",870.0838,1,TRUE,1,8,NA,870.0841,871.2751,871.2752,873.0915,873.0915,874.0842,0,7,7,6,1,"resources/F7Mch0.png",1,NA,NA,NA,NA,NA,NA,NA,NA,NA,NA
NA,NA,NA,NA,NA,NA,NA,49,"male","2025-11-21_18h35.39.428","Category_Training_NoLabel","2024.2.4","MacIntel",57.47126437,NA,NA,NA,NA,NA,NA,NA,NA,NA,NA,874.0846,"[""right""]",876.5625,1,FALSE,0,8,NA,876.5629,877.7585,877.7587,879.5399,879.5399,880.5574,0,8,8,15,1,"resources/F8Mdh0.png",2,NA,NA,NA,NA,NA,NA,NA,NA,NA,NA
NA,NA,NA,NA,NA,NA,NA,49,"male","2025-11-21_18h35.39.428","Category_Training_NoLabel","2024.2.4","MacIntel",57.47126437,NA,NA,NA,NA,NA,NA,NA,NA,NA,NA,880.5578,"[""down""]",882.8194,0,TRUE,0,8,NA,882.8196,884.0073,884.0075,885.8264,885.8264,886.8235,0,9,9,10,1,"resources/F8Fch0.png",2,NA,NA,NA,NA,NA,NA,NA,NA,NA,NA
NA,NA,NA,NA,NA,NA,NA,49,"male","2025-11-21_18h35.39.428","Category_Training_NoLabel","2024.2.4","MacIntel",57.47126437,NA,NA,NA,NA,NA,NA,NA,NA,NA,NA,886.8239,"[""down""]",889.468,1,TRUE,1,8,NA,889.4682,890.6626,890.6629,892.4589,892.4589,893.4769,0,10,10,1,1,"resources/F7Fbh0.png",1,NA,NA,NA,NA,NA,NA,NA,NA,NA,NA
NA,NA,NA,NA,NA,NA,NA,49,"male","2025-11-21_18h35.39.428","Category_Training_NoLabel","2024.2.4","MacIntel",57.47126437,NA,NA,NA,NA,NA,NA,NA,NA,NA,NA,893.4775,"[""right""]",895.6605,1,TRUE,1,8,NA,895.6608,896.8554,896.8556,898.6506,898.6507,899.6459,0,11,11,3,1,"resources/F7Fdh0.png",1,NA,NA,NA,NA,NA,NA,NA,NA,NA,NA
NA,NA,NA,NA,NA,NA,NA,49,"male","2025-11-21_18h35.39.428","Category_Training_NoLabel","2024.2.4","MacIntel",57.47126437,NA,NA,NA,NA,NA,NA,NA,NA,NA,NA,899.6462,"[""right""]",902.2344,1,TRUE,1,8,NA,902.2346,903.4239,903.4241,905.2396,905.2396,906.2134,0,12,12,5,1,"resources/F7Mbh0.png",1,NA,NA,NA,NA,NA,NA,NA,NA,NA,NA
NA,NA,NA,NA,NA,NA,NA,49,"male","2025-11-21_18h35.39.428","Category_Training_NoLabel","2024.2.4","MacIntel",57.47126437,NA,NA,NA,NA,NA,NA,NA,NA,NA,NA,906.2138,"[""down""]",908.526,1,TRUE,1,8,NA,908.5263,909.7162,909.7165,911.5244,911.5244,912.521,0,13,13,4,1,"resources/F7Mah0.png",1,NA,NA,NA,NA,NA,NA,NA,NA,NA,NA
NA,NA,NA,NA,NA,NA,NA,49,"male","2025-11-21_18h35.39.428","Category_Training_NoLabel","2024.2.4","MacIntel",57.47126437,NA,NA,NA,NA,NA,NA,NA,NA,NA,NA,912.5213,"[""left""]",914.6261,1,FALSE,0,8,NA,914.6264,915.8129,915.8131,917.631,917.631,918.6304,0,14,14,11,1,"resources/F8Fdh0.png",2,NA,NA,NA,NA,NA,NA,NA,NA,NA,NA
NA,NA,NA,NA,NA,NA,NA,49,"male","2025-11-21_18h35.39.428","Category_Training_NoLabel","2024.2.4","MacIntel",57.47126437,NA,NA,NA,NA,NA,NA,NA,NA,NA,NA,918.6307,"[""up""]",921.217,1,FALSE,0,8,NA,921.2172,922.3955,922.3957,924.1985,924.1985,925.214,0,15,15,8,1,"resources/F8Fah0.png",2,NA,NA,NA,NA,NA,NA,NA,NA,NA,NA
NA,NA,NA,NA,NA,NA,NA,49,"male","2025-11-21_18h35.39.428","Category_Training_NoLabel","2024.2.4","MacIntel",57.47126437,NA,NA,NA,NA,NA,NA,NA,NA,NA,NA,926.7957,"[""left""]",929.3814,1,TRUE,1,9,NA,929.3816,930.5762,930.5764,932.3709,932.371,933.3652,0,0,0,6,1,"resources/F7Mch0.png",1,925.2146,926.7922,"space",1.5437,NA,NA,NA,NA,NA,NA
NA,NA,NA,NA,NA,NA,NA,49,"male","2025-11-21_18h35.39.428","Category_Training_NoLabel","2024.2.4","MacIntel",57.47126437,NA,NA,NA,NA,NA,NA,NA,NA,NA,NA,933.3656,"[""down""]",935.7318,1,FALSE,0,9,NA,935.732,936.9312,936.9314,938.7289,938.7289,939.7258,0,1,1,13,1,"resources/F8Mbh0.png",2,NA,NA,NA,NA,NA,NA,NA,NA,NA,NA
NA,NA,NA,NA,NA,NA,NA,49,"male","2025-11-21_18h35.39.428","Category_Training_NoLabel","2024.2.4","MacIntel",57.47126437,NA,NA,NA,NA,NA,NA,NA,NA,NA,NA,939.7261,"[""left""]",941.9168,1,TRUE,1,9,NA,941.917,943.1126,943.1128,944.9073,944.9073,945.8999,0,2,2,4,1,"resources/F7Mah0.png",1,NA,NA,NA,NA,NA,NA,NA,NA,NA,NA
NA,NA,NA,NA,NA,NA,NA,49,"male","2025-11-21_18h35.39.428","Category_Training_NoLabel","2024.2.4","MacIntel",57.47126437,NA,NA,NA,NA,NA,NA,NA,NA,NA,NA,945.9003,"[""down""]",949.5564,1,TRUE,1,9,NA,949.5566,950.7505,950.7506,952.5467,952.5468,953.5654,0,3,3,0,1,"resources/F7Fah0.png",1,NA,NA,NA,NA,NA,NA,NA,NA,NA,NA
NA,NA,NA,NA,NA,NA,NA,49,"male","2025-11-21_18h35.39.428","Category_Training_NoLabel","2024.2.4","MacIntel",57.47126437,NA,NA,NA,NA,NA,NA,NA,NA,NA,NA,953.5656,"[""down""]",955.7651,1,FALSE,0,9,NA,955.7654,956.9601,956.9604,958.7657,958.7657,959.7622,0,4,4,15,1,"resources/F8Mdh0.png",2,NA,NA,NA,NA,NA,NA,NA,NA,NA,NA
NA,NA,NA,NA,NA,NA,NA,49,"male","2025-11-21_18h35.39.428","Category_Training_NoLabel","2024.2.4","MacIntel",57.47126437,NA,NA,NA,NA,NA,NA,NA,NA,NA,NA,959.7627,"[""left""]",962.1502,1,FALSE,0,9,NA,962.1505,963.3473,963.3476,965.143,965.1431,966.1412,0,5,5,10,1,"resources/F8Fch0.png",2,NA,NA,NA,NA,NA,NA,NA,NA,NA,NA
NA,NA,NA,NA,NA,NA,NA,49,"male","2025-11-21_18h35.39.428","Category_Training_NoLabel","2024.2.4","MacIntel",57.47126437,NA,NA,NA,NA,NA,NA,NA,NA,NA,NA,966.1415,"[""left""]",968.1774,1,FALSE,0,9,NA,968.1776,969.3531,969.3533,971.1781,971.1781,972.1522,0,6,6,11,1,"resources/F8Fdh0.png",2,NA,NA,NA,NA,NA,NA,NA,NA,NA,NA
NA,NA,NA,NA,NA,NA,NA,49,"male","2025-11-21_18h35.39.428","Category_Training_NoLabel","2024.2.4","MacIntel",57.47126437,NA,NA,NA,NA,NA,NA,NA,NA,NA,NA,972.1525,"[""down""]",974.3244,1,FALSE,0,9,NA,974.3246,975.5173,975.5174,977.3274,977.3274,978.3057,0,7,7,9,1,"resources/F8Fbh0.png",2,NA,NA,NA,NA,NA,NA,NA,NA,NA,NA
NA,NA,NA,NA,NA,NA,NA,49,"male","2025-11-21_18h35.39.428","Category_Training_NoLabel","2024.2.4","MacIntel",57.47126437,NA,NA,NA,NA,NA,NA,NA,NA,NA,NA,978.3061,"[""up""]",980.8642,0,TRUE,0,9,NA,980.8644,982.0598,982.0599,983.8591,983.8591,984.8581,0,8,8,14,1,"resources/F8Mch0.png",2,NA,NA,NA,NA,NA,NA,NA,NA,NA,NA
NA,NA,NA,NA,NA,NA,NA,49,"male","2025-11-21_18h35.39.428","Category_Training_NoLabel","2024.2.4","MacIntel",57.47126437,NA,NA,NA,NA,NA,NA,NA,NA,NA,NA,984.8585,"[""down""]",986.8153,1,FALSE,0,9,NA,986.8156,988.0109,988.0111,989.7909,989.7909,990.8116,0,9,9,8,1,"resources/F8Fah0.png",2,NA,NA,NA,NA,NA,NA,NA,NA,NA,NA
NA,NA,NA,NA,NA,NA,NA,49,"male","2025-11-21_18h35.39.428","Category_Training_NoLabel","2024.2.4","MacIntel",57.47126437,NA,NA,NA,NA,NA,NA,NA,NA,NA,NA,990.812,"[""left""]",993.0486,1,TRUE,1,9,NA,993.0489,994.2412,994.2414,996.0396,996.0396,997.0515,0,10,10,7,1,"resources/F7Mdh0.png",1,NA,NA,NA,NA,NA,NA,NA,NA,NA,NA
NA,NA,NA,NA,NA,NA,NA,49,"male","2025-11-21_18h35.39.428","Category_Training_NoLabel","2024.2.4","MacIntel",57.47126437,NA,NA,NA,NA,NA,NA,NA,NA,NA,NA,997.0519,"[""down""]",999.1784,1,FALSE,0,9,NA,999.1787,1000.3758,1000.376,1002.1706,1002.1706,1003.1676,0,11,11,12,1,"resources/F8Mah0.png",2,NA,NA,NA,NA,NA,NA,NA,NA,NA,NA
NA,NA,NA,NA,NA,NA,NA,49,"male","2025-11-21_18h35.39.428","Category_Training_NoLabel","2024.2.4","MacIntel",57.47126437,NA,NA,NA,NA,NA,NA,NA,NA,NA,NA,1003.168,"[""left""]",1005.3828,1,TRUE,1,9,NA,1005.3831,1006.5773,1006.5775,1008.3898,1008.3898,1009.3883,0,12,12,3,1,"resources/F7Fdh0.png",1,NA,NA,NA,NA,NA,NA,NA,NA,NA,NA
NA,NA,NA,NA,NA,NA,NA,49,"male","2025-11-21_18h35.39.428","Category_Training_NoLabel","2024.2.4","MacIntel",57.47126437,NA,NA,NA,NA,NA,NA,NA,NA,NA,NA,1009.3887,"[""left""]",1011.6646,0,FALSE,1,9,NA,1011.6649,1012.8588,1012.859,1014.6401,1014.6401,1015.6596,0,13,13,1,1,"resources/F7Fbh0.png",1,NA,NA,NA,NA,NA,NA,NA,NA,NA,NA
NA,NA,NA,NA,NA,NA,NA,49,"male","2025-11-21_18h35.39.428","Category_Training_NoLabel","2024.2.4","MacIntel",57.47126437,NA,NA,NA,NA,NA,NA,NA,NA,NA,NA,1015.66,"[""left""]",1017.934,1,TRUE,1,9,NA,1017.9343,1019.1092,1019.1094,1020.9262,1020.9262,1021.928,0,14,14,2,1,"resources/F7Fch0.png",1,NA,NA,NA,NA,NA,NA,NA,NA,NA,NA
NA,NA,NA,NA,NA,NA,NA,49,"male","2025-11-21_18h35.39.428","Category_Training_NoLabel","2024.2.4","MacIntel",57.47126437,NA,NA,NA,NA,NA,NA,NA,NA,NA,NA,1021.9284,"[""up""]",1024.6113,1,TRUE,1,9,NA,1024.6117,1025.8048,1025.805,1027.6065,1027.6065,1028.6,0,15,15,5,1,"resources/F7Mbh0.png",1,NA,NA,NA,NA,NA,NA,NA,NA,NA,NA
NA,NA,NA,NA,NA,NA,NA,49,"male","2025-11-21_18h35.39.428","Category_Training_NoLabel","2024.2.4","MacIntel",57.47126437,NA,NA,NA,NA,NA,NA,NA,NA,NA,NA,NA,NA,NA,NA,NA,NA,NA,NA,NA,NA,NA,NA,NA,NA,NA,NA,NA,NA,NA,NA,NA,1028.6007,1030.6008,"space",1.9708,NA,1030.601,1055.2688,"space",24.617,NA
